trials.thisRepN,trials.thisTrialN,trials.thisN,trials.thisIndex,thisRow.t,notes,trial.started,fixation.started,fixation.stopped,key_resp.started,trial.stopped,key_resp.keys,key_resp.corr,key_resp.rt,key_resp.duration,tilt,participant,session,date,expName,psychopyVersion,frameRate,expStart,
0,0,0,0,0.0067260999931022525,,0.0037341999995987862,0.0067260999931022525,1.0479372999980114,1.0479372999980114,4.99923739998485,down,1,3.9438305999792647,None,3,ayushi_final,001,2024-09-13_11h58.57.300,D4_exp4_SignalDetectionTheory,2024.1.5,None,2024-09-13 11h59.14.382580 +0530,
1,0,1,0,5.011933900008444,,5.000832299992908,5.011933900008444,6.012035899999319,6.012035899999319,7.029548699996667,down,1,1.0075034000037704,None,2,ayushi_final,001,2024-09-13_11h58.57.300,D4_exp4_SignalDetectionTheory,2024.1.5,None,2024-09-13 11h59.14.382580 +0530,
2,0,2,0,7.045404500007862,,7.0307924000080675,7.045404500007862,8.04571579999174,8.04571579999174,9.013360799988732,up,0,0.957443899998907,None,-2,ayushi_final,001,2024-09-13_11h58.57.300,D4_exp4_SignalDetectionTheory,2024.1.5,None,2024-09-13 11h59.14.382580 +0530,
3,0,3,0,9.029097899998305,,9.014592199993785,9.029097899998305,10.029202999983681,10.029202999983681,10.929942299990216,up,1,0.8904074000020046,None,0,ayushi_final,001,2024-09-13_11h58.57.300,D4_exp4_SignalDetectionTheory,2024.1.5,None,2024-09-13 11h59.14.382580 +0530,
4,0,4,0,10.945781899994472,,10.93123290000949,10.945781899994472,11.945990699983668,11.945990699983668,12.83022569998866,down,1,0.8822328000096604,None,3,ayushi_final,001,2024-09-13_11h58.57.300,D4_exp4_SignalDetectionTheory,2024.1.5,None,2024-09-13 11h59.14.382580 +0530,
5,0,5,0,12.845990100002382,,12.831481300003361,12.845990100002382,13.846259799989639,13.846259799989639,17.88067250000313,up,1,4.031317200016929,None,0,ayushi_final,001,2024-09-13_11h58.57.300,D4_exp4_SignalDetectionTheory,2024.1.5,None,2024-09-13 11h59.14.382580 +0530,
6,0,6,0,17.89735169999767,,17.881906900001923,17.89735169999767,18.896671499998774,18.896671499998774,20.114474400004838,up,1,1.2095881999994162,None,0,ayushi_final,001,2024-09-13_11h58.57.300,D4_exp4_SignalDetectionTheory,2024.1.5,None,2024-09-13 11h59.14.382580 +0530,
7,0,7,0,20.130268000008073,,20.115696699998807,20.130268000008073,21.13080769998487,21.13080769998487,24.23144589998992,up,1,3.0884541000123136,None,0,ayushi_final,001,2024-09-13_11h58.57.300,D4_exp4_SignalDetectionTheory,2024.1.5,None,2024-09-13 11h59.14.382580 +0530,
8,0,8,0,24.24731159998919,,24.232718999992358,24.24731159998919,25.247634200000903,25.247634200000903,26.01514090001001,up,1,0.7546370000054594,None,0,ayushi_final,001,2024-09-13_11h58.57.300,D4_exp4_SignalDetectionTheory,2024.1.5,None,2024-09-13 11h59.14.382580 +0530,
9,0,9,0,26.030820399988443,,26.016437799989944,26.030820399988443,27.03093269999954,27.03093269999954,27.864998300006846,up,0,0.8221439000044484,None,1,ayushi_final,001,2024-09-13_11h58.57.300,D4_exp4_SignalDetectionTheory,2024.1.5,None,2024-09-13 11h59.14.382580 +0530,
10,0,10,0,27.880877799994778,,27.866284299991094,27.880877799994778,28.88104010000825,28.88104010000825,29.648587000003317,up,0,0.7545788999996148,None,-2,ayushi_final,001,2024-09-13_11h58.57.300,D4_exp4_SignalDetectionTheory,2024.1.5,None,2024-09-13 11h59.14.382580 +0530,
11,0,11,0,29.66439970000647,,29.649825300002703,29.66439970000647,30.664806399989175,30.664806399989175,32.79889030000777,down,0,2.12347319998662,None,0,ayushi_final,001,2024-09-13_11h58.57.300,D4_exp4_SignalDetectionTheory,2024.1.5,None,2024-09-13 11h59.14.382580 +0530,
12,0,12,0,32.81472739999299,,32.80017599998973,32.81472739999299,33.81493789999513,33.81493789999513,35.13250320000225,up,1,1.3115634999994654,None,0,ayushi_final,001,2024-09-13_11h58.57.300,D4_exp4_SignalDetectionTheory,2024.1.5,None,2024-09-13 11h59.14.382580 +0530,
13,0,13,0,35.14833450000151,,35.13373259999207,35.14833450000151,36.148656400007894,36.148656400007894,37.316373399982695,up,1,1.166365000011865,None,0,ayushi_final,001,2024-09-13_11h58.57.300,D4_exp4_SignalDetectionTheory,2024.1.5,None,2024-09-13 11h59.14.382580 +0530,
14,0,14,0,37.331909300002735,,37.317676200007554,37.331909300002735,38.33227939999779,38.33227939999779,39.06617629999528,up,1,0.7211609999940265,None,0,ayushi_final,001,2024-09-13_11h58.57.300,D4_exp4_SignalDetectionTheory,2024.1.5,None,2024-09-13 11h59.14.382580 +0530,
15,0,15,0,39.08199589999276,,39.067437099991366,39.08199589999276,40.08220269999583,40.08220269999583,41.149767700000666,down,1,1.0630525999877136,None,-4,ayushi_final,001,2024-09-13_11h58.57.300,D4_exp4_SignalDetectionTheory,2024.1.5,None,2024-09-13 11h59.14.382580 +0530,
16,0,16,0,41.16548180000973,,41.15101199998753,41.16548180000973,42.16588449999108,42.16588449999108,42.91702500000247,up,1,0.7460386999882758,None,0,ayushi_final,001,2024-09-13_11h58.57.300,D4_exp4_SignalDetectionTheory,2024.1.5,None,2024-09-13 11h59.14.382580 +0530,
17,0,17,0,42.932465899997624,,42.91832019999856,42.932465899997624,43.932688300003065,43.932688300003065,44.61706660001073,up,0,0.6725652999884915,None,-2,ayushi_final,001,2024-09-13_11h58.57.300,D4_exp4_SignalDetectionTheory,2024.1.5,None,2024-09-13 11h59.14.382580 +0530,
18,0,18,0,44.63270889999694,,44.61834459999227,44.63270889999694,45.63280349998968,45.63280349998968,46.48358549998375,down,1,0.8443749999860302,None,-3,ayushi_final,001,2024-09-13_11h58.57.300,D4_exp4_SignalDetectionTheory,2024.1.5,None,2024-09-13 11h59.14.382580 +0530,
19,0,19,0,46.499345899996115,,46.48477660000208,46.499345899996115,47.499622000003,47.499622000003,48.78380149998702,down,0,1.2753564000013284,None,0,ayushi_final,001,2024-09-13_11h58.57.300,D4_exp4_SignalDetectionTheory,2024.1.5,None,2024-09-13 11h59.14.382580 +0530,
20,0,20,0,48.7996945999912,,48.78507179999724,48.7996945999912,49.79992699998547,49.79992699998547,50.750786899996456,down,0,0.935338999988744,None,0,ayushi_final,001,2024-09-13_11h58.57.300,D4_exp4_SignalDetectionTheory,2024.1.5,None,2024-09-13 11h59.14.382580 +0530,
21,0,21,0,50.76657959999284,,50.75207519999822,50.76657959999284,51.76684130000649,51.76684130000649,52.6510350999888,down,1,0.8809380999882706,None,1,ayushi_final,001,2024-09-13_11h58.57.300,D4_exp4_SignalDetectionTheory,2024.1.5,None,2024-09-13 11h59.14.382580 +0530,
22,0,22,0,52.66683259999263,,52.6522994999832,52.66683259999263,53.66694560000906,53.66694560000906,54.534646099986276,up,1,0.858000100008212,None,0,ayushi_final,001,2024-09-13_11h58.57.300,D4_exp4_SignalDetectionTheory,2024.1.5,None,2024-09-13 11h59.14.382580 +0530,
23,0,23,0,54.550329599995166,,54.53596499998821,54.550329599995166,55.55059900000924,55.55059900000924,56.317914299987024,down,1,0.7562753000238445,None,2,ayushi_final,001,2024-09-13_11h58.57.300,D4_exp4_SignalDetectionTheory,2024.1.5,None,2024-09-13 11h59.14.382580 +0530,
24,0,24,0,56.33389539999189,,56.31915769999614,56.33389539999189,57.33403480000561,57.33403480000561,58.18496459999005,down,0,0.8499162999796681,None,0,ayushi_final,001,2024-09-13_11h58.57.300,D4_exp4_SignalDetectionTheory,2024.1.5,None,2024-09-13 11h59.14.382580 +0530,
25,0,25,0,58.20063420000952,,58.18621539999731,58.20063420000952,59.200769199989736,59.200769199989736,60.10197719998541,up,1,0.896359600010328,None,0,ayushi_final,001,2024-09-13_11h58.57.300,D4_exp4_SignalDetectionTheory,2024.1.5,None,2024-09-13 11h59.14.382580 +0530,
26,0,26,0,60.11758019999252,,60.103235799993854,60.11758019999252,61.11769650000497,61.11769650000497,62.135236600006465,up,0,1.0115421000227798,None,-2,ayushi_final,001,2024-09-13_11h58.57.300,D4_exp4_SignalDetectionTheory,2024.1.5,None,2024-09-13 11h59.14.382580 +0530,
27,0,27,0,62.151078800001414,,62.136633899994195,62.151078800001414,63.151241299987305,63.151241299987305,64.16909469998791,up,1,1.0018452999938745,None,0,ayushi_final,001,2024-09-13_11h58.57.300,D4_exp4_SignalDetectionTheory,2024.1.5,None,2024-09-13 11h59.14.382580 +0530,
28,0,28,0,64.18465750000905,,64.17053109998233,64.18465750000905,65.18511079999735,65.18511079999735,66.45256050000899,down,1,1.2518442000146024,None,4,ayushi_final,001,2024-09-13_11h58.57.300,D4_exp4_SignalDetectionTheory,2024.1.5,None,2024-09-13 11h59.14.382580 +0530,
29,0,29,0,66.46823729999596,,66.45386259999941,66.46823729999596,67.46852299998864,67.46852299998864,68.2860842999944,down,1,0.8083275999815669,None,4,ayushi_final,001,2024-09-13_11h58.57.300,D4_exp4_SignalDetectionTheory,2024.1.5,None,2024-09-13 11h59.14.382580 +0530,
30,0,30,0,68.30193349998444,,68.2873394000053,68.30193349998444,69.30183320000651,69.30183320000651,70.40299139998388,down,1,1.0991167000029236,None,3,ayushi_final,001,2024-09-13_11h58.57.300,D4_exp4_SignalDetectionTheory,2024.1.5,None,2024-09-13 11h59.14.382580 +0530,
31,0,31,0,70.41872389998753,,70.40427569998428,70.41872389998753,71.41875799998525,71.41875799998525,72.90311479999218,down,1,1.4768662999849766,None,1,ayushi_final,001,2024-09-13_11h58.57.300,D4_exp4_SignalDetectionTheory,2024.1.5,None,2024-09-13 11h59.14.382580 +0530,
32,0,32,0,72.91890409999178,,72.90436149999732,72.91890409999178,73.91899939998984,73.91899939998984,76.96999409998534,up,1,3.0458804000227246,None,0,ayushi_final,001,2024-09-13_11h58.57.300,D4_exp4_SignalDetectionTheory,2024.1.5,None,2024-09-13 11h59.14.382580 +0530,
33,0,33,0,76.98592800000915,,76.97128749999683,76.98592800000915,77.98612369998591,77.98612369998591,79.15391210000962,down,1,1.1573293000110425,None,-4,ayushi_final,001,2024-09-13_11h58.57.300,D4_exp4_SignalDetectionTheory,2024.1.5,None,2024-09-13 11h59.14.382580 +0530,
34,0,34,0,79.16953330000979,,79.15515340000275,79.16953330000979,80.16963590000523,80.16963590000523,81.4204338999989,down,1,1.2475766999996267,None,-5,ayushi_final,001,2024-09-13_11h58.57.300,D4_exp4_SignalDetectionTheory,2024.1.5,None,2024-09-13 11h59.14.382580 +0530,
35,0,35,0,81.43664699999499,,81.42170440001064,81.43664699999499,82.43676529999357,82.43676529999357,83.75412160000997,up,1,1.3143910999933723,None,0,ayushi_final,001,2024-09-13_11h58.57.300,D4_exp4_SignalDetectionTheory,2024.1.5,None,2024-09-13 11h59.14.382580 +0530,
36,0,36,0,83.76995469999383,,83.75539939998998,83.76995469999383,84.77013089999673,84.77013089999673,85.85433169998578,up,1,1.07459239999298,None,0,ayushi_final,001,2024-09-13_11h58.57.300,D4_exp4_SignalDetectionTheory,2024.1.5,None,2024-09-13 11h59.14.382580 +0530,
37,0,37,0,85.87012259999756,,85.8556113000086,85.87012259999756,86.87074959999882,86.87074959999882,87.78818699999829,down,0,0.9066763000155333,None,0,ayushi_final,001,2024-09-13_11h58.57.300,D4_exp4_SignalDetectionTheory,2024.1.5,None,2024-09-13 11h59.14.382580 +0530,
38,0,38,0,87.8037314999965,,87.78945219999878,87.8037314999965,88.80376239999896,88.80376239999896,90.1713233999908,down,1,1.3577951999905054,None,-4,ayushi_final,001,2024-09-13_11h58.57.300,D4_exp4_SignalDetectionTheory,2024.1.5,None,2024-09-13 11h59.14.382580 +0530,
39,0,39,0,90.1873207000026,,90.17263749998529,90.1873207000026,91.18770429998403,91.18770429998403,92.33854599998449,up,0,1.1471553999872413,None,1,ayushi_final,001,2024-09-13_11h58.57.300,D4_exp4_SignalDetectionTheory,2024.1.5,None,2024-09-13 11h59.14.382580 +0530,
40,0,40,0,92.35431029999745,,92.33989430000656,92.35431029999745,93.3543851999857,93.3543851999857,95.15531949998694,down,1,1.7922173999832012,None,3,ayushi_final,001,2024-09-13_11h58.57.300,D4_exp4_SignalDetectionTheory,2024.1.5,None,2024-09-13 11h59.14.382580 +0530,
41,0,41,0,95.17117789998883,,95.15657669998473,95.17117789998883,96.17133199999807,96.17133199999807,101.40612010000041,up,1,5.219136500003515,None,0,ayushi_final,001,2024-09-13_11h58.57.300,D4_exp4_SignalDetectionTheory,2024.1.5,None,2024-09-13 11h59.14.382580 +0530,
42,0,42,0,101.42195550000179,,101.40734820000944,101.42195550000179,102.4219829000067,102.4219829000067,103.3395148999989,down,1,0.9113341000047512,None,-4,ayushi_final,001,2024-09-13_11h58.57.300,D4_exp4_SignalDetectionTheory,2024.1.5,None,2024-09-13 11h59.14.382580 +0530,
43,0,43,0,103.35528069999418,,103.3407554999867,103.35528069999418,104.35553529998288,104.35553529998288,108.53999419999309,up,1,4.183078400004888,None,0,ayushi_final,001,2024-09-13_11h58.57.300,D4_exp4_SignalDetectionTheory,2024.1.5,None,2024-09-13 11h59.14.382580 +0530,
44,0,44,0,108.55580729999929,,108.54138839998632,108.55580729999929,109.55603320000228,109.55603320000228,111.34026739999535,up,1,1.7699505999917164,None,0,ayushi_final,001,2024-09-13_11h58.57.300,D4_exp4_SignalDetectionTheory,2024.1.5,None,2024-09-13 11h59.14.382580 +0530,
45,0,45,0,111.35602599999402,,111.34254320000764,111.35602599999402,112.35630610000226,112.35630610000226,113.15707749998546,up,1,0.7877933999989182,None,0,ayushi_final,001,2024-09-13_11h58.57.300,D4_exp4_SignalDetectionTheory,2024.1.5,None,2024-09-13 11h59.14.382580 +0530,
46,0,46,0,113.17299429999548,,113.15835009998409,113.17299429999548,114.1730741999927,114.1730741999927,116.20747570000822,down,1,2.0282312000053935,None,4,ayushi_final,001,2024-09-13_11h58.57.300,D4_exp4_SignalDetectionTheory,2024.1.5,None,2024-09-13 11h59.14.382580 +0530,
47,0,47,0,116.22322089999216,,116.20874909998383,116.22322089999216,117.2235253000108,117.2235253000108,118.27476559998468,up,1,1.0353020000038669,None,0,ayushi_final,001,2024-09-13_11h58.57.300,D4_exp4_SignalDetectionTheory,2024.1.5,None,2024-09-13 11h59.14.382580 +0530,
48,0,48,0,118.29041970000253,,118.27601380000124,118.29041970000253,119.2904334999912,119.2904334999912,123.55831540000509,up,1,4.26482529999339,None,0,ayushi_final,001,2024-09-13_11h58.57.300,D4_exp4_SignalDetectionTheory,2024.1.5,None,2024-09-13 11h59.14.382580 +0530,
49,0,49,0,123.5742057999887,,123.55956379999407,123.5742057999887,124.57441669999389,124.57441669999389,125.82540279999375,up,1,1.24009790000855,None,0,ayushi_final,001,2024-09-13_11h58.57.300,D4_exp4_SignalDetectionTheory,2024.1.5,None,2024-09-13 11h59.14.382580 +0530,
50,0,50,0,125.84098099998664,,125.82666359998984,125.84098099998664,126.84134499999345,126.84134499999345,127.69204329999047,down,1,0.8337101000070106,None,3,ayushi_final,001,2024-09-13_11h58.57.300,D4_exp4_SignalDetectionTheory,2024.1.5,None,2024-09-13 11h59.14.382580 +0530,
51,0,51,0,127.70793770000455,,127.69331689999672,127.70793770000455,128.7082003999967,128.7082003999967,129.9423475000076,down,1,1.2209097000013571,None,-4,ayushi_final,001,2024-09-13_11h58.57.300,D4_exp4_SignalDetectionTheory,2024.1.5,None,2024-09-13 11h59.14.382580 +0530,
52,0,52,0,129.95826529999613,,129.94362370000454,129.95826529999613,130.95820890000323,130.95820890000323,131.6425794000097,up,1,0.6826508999802172,None,0,ayushi_final,001,2024-09-13_11h58.57.300,D4_exp4_SignalDetectionTheory,2024.1.5,None,2024-09-13 11h59.14.382580 +0530,
53,0,53,0,131.65828080000938,,131.64406749999034,131.65828080000938,132.65842679998605,132.65842679998605,133.82608810000238,up,1,1.1651407000026666,None,0,ayushi_final,001,2024-09-13_11h58.57.300,D4_exp4_SignalDetectionTheory,2024.1.5,None,2024-09-13 11h59.14.382580 +0530,
54,0,54,0,133.84184049998294,,133.8274367999984,133.84184049998294,134.84195750000072,134.84195750000072,136.29277169998386,down,1,1.442719800019404,None,4,ayushi_final,001,2024-09-13_11h58.57.300,D4_exp4_SignalDetectionTheory,2024.1.5,None,2024-09-13 11h59.14.382580 +0530,
55,0,55,0,136.30865980000817,,136.29400249998434,136.30865980000817,137.30885239999043,137.30885239999043,142.07676249998622,down,0,4.763490200013621,None,0,ayushi_final,001,2024-09-13_11h58.57.300,D4_exp4_SignalDetectionTheory,2024.1.5,None,2024-09-13 11h59.14.382580 +0530,
56,0,56,0,142.0926235000079,,142.07832279999275,142.0926235000079,143.09282459999667,143.09282459999667,145.19414750000578,up,0,2.096724200004246,None,4,ayushi_final,001,2024-09-13_11h58.57.300,D4_exp4_SignalDetectionTheory,2024.1.5,None,2024-09-13 11h59.14.382580 +0530,
57,0,57,0,145.20967250000103,,145.1953657999984,145.20967250000103,146.2099581999937,146.2099581999937,147.29428909998387,down,0,1.0683730999880936,None,0,ayushi_final,001,2024-09-13_11h58.57.300,D4_exp4_SignalDetectionTheory,2024.1.5,None,2024-09-13 11h59.14.382580 +0530,
58,0,58,0,147.30989209999098,,147.29551779999747,147.30989209999098,148.31020790000912,148.31020790000912,149.17749149998417,up,1,0.8652572999999393,None,0,ayushi_final,001,2024-09-13_11h58.57.300,D4_exp4_SignalDetectionTheory,2024.1.5,None,2024-09-13 11h59.14.382580 +0530,
59,0,59,0,149.19333340000594,,149.17876449998585,149.19333340000594,150.19371600000886,150.19371600000886,150.99454210000113,down,1,0.7938100000028498,None,3,ayushi_final,001,2024-09-13_11h58.57.300,D4_exp4_SignalDetectionTheory,2024.1.5,None,2024-09-13 11h59.14.382580 +0530,
60,0,60,0,151.01048729999457,,150.99580219999189,151.01048729999457,152.01038779999362,152.01038779999362,152.62812509998912,up,0,0.604848499991931,None,2,ayushi_final,001,2024-09-13_11h58.57.300,D4_exp4_SignalDetectionTheory,2024.1.5,None,2024-09-13 11h59.14.382580 +0530,
61,0,61,0,152.64367240000865,,152.62975369999185,152.64367240000865,153.64384840001003,153.64384840001003,154.54453980000108,up,1,0.8837530000018887,None,0,ayushi_final,001,2024-09-13_11h58.57.300,D4_exp4_SignalDetectionTheory,2024.1.5,None,2024-09-13 11h59.14.382580 +0530,
62,0,62,0,154.56055819999892,,154.54587599998922,154.56055819999892,155.56086269998923,155.56086269998923,156.61155509998207,down,1,1.0393885999801569,None,-5,ayushi_final,001,2024-09-13_11h58.57.300,D4_exp4_SignalDetectionTheory,2024.1.5,None,2024-09-13 11h59.14.382580 +0530,
63,0,63,0,156.6273383999942,,156.61282549999305,156.6273383999942,157.62756570000784,157.62756570000784,158.92849359998945,down,0,1.2969483000051696,None,0,ayushi_final,001,2024-09-13_11h58.57.300,D4_exp4_SignalDetectionTheory,2024.1.5,None,2024-09-13 11h59.14.382580 +0530,
64,0,64,0,158.94430609999108,,158.92969610000728,158.94430609999108,159.94454309999128,159.94454309999128,160.8118756999902,down,0,0.8531767999811564,None,0,ayushi_final,001,2024-09-13_11h58.57.300,D4_exp4_SignalDetectionTheory,2024.1.5,None,2024-09-13 11h59.14.382580 +0530,
65,0,65,0,160.8277826999838,,160.81317979999585,160.8277826999838,161.828173899994,161.828173899994,162.54635399999097,down,0,0.7168599999858998,None,0,ayushi_final,001,2024-09-13_11h58.57.300,D4_exp4_SignalDetectionTheory,2024.1.5,None,2024-09-13 11h59.14.382580 +0530,
66,0,66,0,162.56135889998404,,162.54760869999882,162.56135889998404,163.56157550000353,163.56157550000353,164.16258609999204,down,0,0.59853810002096,None,0,ayushi_final,001,2024-09-13_11h58.57.300,D4_exp4_SignalDetectionTheory,2024.1.5,None,2024-09-13 11h59.14.382580 +0530,
67,0,67,0,164.1783165000088,,164.16385909999372,164.1783165000088,165.17838329999358,165.17838329999358,166.19589470000938,down,0,1.0055415999959223,None,0,ayushi_final,001,2024-09-13_11h58.57.300,D4_exp4_SignalDetectionTheory,2024.1.5,None,2024-09-13 11h59.14.382580 +0530,
68,0,68,0,166.21182510000654,,166.19716949999565,166.21182510000654,167.21213349999744,167.21213349999744,167.8295505999995,down,0,0.6131342000153381,None,0,ayushi_final,001,2024-09-13_11h58.57.300,D4_exp4_SignalDetectionTheory,2024.1.5,None,2024-09-13 11h59.14.382580 +0530,
69,0,69,0,167.84549350000452,,167.83077339999727,167.84549350000452,168.84566600000835,168.84566600000835,169.5461609000049,down,0,0.6864391999843065,None,0,ayushi_final,001,2024-09-13_11h58.57.300,D4_exp4_SignalDetectionTheory,2024.1.5,None,2024-09-13 11h59.14.382580 +0530,
70,0,70,0,169.56208529998548,,169.54765140000382,169.56208529998548,170.56218609999632,170.56218609999632,171.79649559999234,up,1,1.2177076000079978,None,0,ayushi_final,001,2024-09-13_11h58.57.300,D4_exp4_SignalDetectionTheory,2024.1.5,None,2024-09-13 11h59.14.382580 +0530,
71,0,71,0,171.81230279998272,,171.79775460000383,171.81230279998272,172.8127111000067,172.8127111000067,173.53015310000046,down,0,0.7099791999789886,None,0,ayushi_final,001,2024-09-13_11h58.57.300,D4_exp4_SignalDetectionTheory,2024.1.5,None,2024-09-13 11h59.14.382580 +0530,
72,0,72,0,173.54596620000666,,173.53144399999292,173.54596620000666,174.54599139999482,174.54599139999482,175.31372700000065,up,1,0.758536900015315,None,0,ayushi_final,001,2024-09-13_11h58.57.300,D4_exp4_SignalDetectionTheory,2024.1.5,None,2024-09-13 11h59.14.382580 +0530,
73,0,73,0,175.3294188999862,,175.3150195000053,175.3294188999862,176.32960060000187,176.32960060000187,177.08051919998252,up,1,0.7472837000095751,None,0,ayushi_final,001,2024-09-13_11h58.57.300,D4_exp4_SignalDetectionTheory,2024.1.5,None,2024-09-13 11h59.14.382580 +0530,
74,0,74,0,177.09628800000064,,177.08184299999266,177.09628800000064,178.0965206999972,178.0965206999972,178.8973541999876,up,0,0.7923456999997143,None,3,ayushi_final,001,2024-09-13_11h58.57.300,D4_exp4_SignalDetectionTheory,2024.1.5,None,2024-09-13 11h59.14.382580 +0530,
75,0,75,0,178.91322980000405,,178.89862359999097,178.91322980000405,179.9132922999852,179.9132922999852,182.6815127999871,up,0,2.755753100005677,None,1,ayushi_final,001,2024-09-13_11h58.57.300,D4_exp4_SignalDetectionTheory,2024.1.5,None,2024-09-13 11h59.14.382580 +0530,
76,0,76,0,182.6969284999941,,182.6827704999887,182.6969284999941,183.6969184000045,183.6969184000045,184.29841970000416,up,1,0.5939601999998558,None,0,ayushi_final,001,2024-09-13_11h58.57.300,D4_exp4_SignalDetectionTheory,2024.1.5,None,2024-09-13 11h59.14.382580 +0530,
77,0,77,0,184.31364790000953,,184.2996565999929,184.31364790000953,185.3140851999924,185.3140851999924,196.93261389998952,down,1,11.606476800021483,None,-3,ayushi_final,001,2024-09-13_11h58.57.300,D4_exp4_SignalDetectionTheory,2024.1.5,None,2024-09-13 11h59.14.382580 +0530,
78,0,78,0,196.94837719999487,,196.9338865999889,196.94837719999487,197.9485708999855,197.9485708999855,198.96589200000744,up,1,1.010275000007823,None,0,ayushi_final,001,2024-09-13_11h58.57.300,D4_exp4_SignalDetectionTheory,2024.1.5,None,2024-09-13 11h59.14.382580 +0530,
79,0,79,0,198.98174689998268,,198.96713229999295,198.98174689998268,199.98196689999895,199.98196689999895,201.01630069999374,down,1,1.0200324000034016,None,2,ayushi_final,001,2024-09-13_11h58.57.300,D4_exp4_SignalDetectionTheory,2024.1.5,None,2024-09-13 11h59.14.382580 +0530,
80,0,80,0,201.03219790000003,,201.01753270000336,201.03219790000003,202.0323461999942,202.0323461999942,202.65022290000343,down,1,0.6163223999901675,None,-4,ayushi_final,001,2024-09-13_11h58.57.300,D4_exp4_SignalDetectionTheory,2024.1.5,None,2024-09-13 11h59.14.382580 +0530,
81,0,81,0,202.66603389999364,,202.65177979998407,202.66603389999364,203.66579319999437,203.66579319999437,215.23428710000007,down,0,11.562709400022868,None,0,ayushi_final,001,2024-09-13_11h58.57.300,D4_exp4_SignalDetectionTheory,2024.1.5,None,2024-09-13 11h59.14.382580 +0530,
82,0,82,0,215.25010279999697,,215.23550449998584,215.25010279999697,216.25031309999758,216.25031309999758,217.1010788999847,up,1,0.8410894999979064,None,0,ayushi_final,001,2024-09-13_11h58.57.300,D4_exp4_SignalDetectionTheory,2024.1.5,None,2024-09-13 11h59.14.382580 +0530,
83,0,83,0,217.11696590000065,,217.10231650000787,217.11696590000065,218.117285299988,218.117285299988,218.60148290000507,up,1,0.4794088000198826,None,0,ayushi_final,001,2024-09-13_11h58.57.300,D4_exp4_SignalDetectionTheory,2024.1.5,None,2024-09-13 11h59.14.382580 +0530,
84,0,84,0,218.61730740001076,,218.60279460001038,218.61730740001076,219.6174381999881,219.6174381999881,220.21829270001035,up,1,0.5864042000030167,None,0,ayushi_final,001,2024-09-13_11h58.57.300,D4_exp4_SignalDetectionTheory,2024.1.5,None,2024-09-13 11h59.14.382580 +0530,
85,0,85,0,220.2340171999822,,220.21958299999824,220.2340171999822,221.23438469998655,221.23438469998655,222.08497619998525,down,1,0.8409760000067763,None,2,ayushi_final,001,2024-09-13_11h58.57.300,D4_exp4_SignalDetectionTheory,2024.1.5,None,2024-09-13 11h59.14.382580 +0530,
86,0,86,0,222.10077789999195,,222.08623990000342,222.10077789999195,223.10126659998787,223.10126659998787,224.60208839998813,down,0,1.4963444000168238,None,0,ayushi_final,001,2024-09-13_11h58.57.300,D4_exp4_SignalDetectionTheory,2024.1.5,None,2024-09-13 11h59.14.382580 +0530,
87,0,87,0,224.61786629998824,,224.60334179998608,224.61786629998824,225.618020599999,225.618020599999,227.11917119999998,down,1,1.4979527000105008,None,-4,ayushi_final,001,2024-09-13_11h58.57.300,D4_exp4_SignalDetectionTheory,2024.1.5,None,2024-09-13 11h59.14.382580 +0530,
88,0,88,0,227.13467749999836,,227.1204163999937,227.13467749999836,228.13507580000442,228.13507580000442,228.71913979999954,down,1,0.5821786999877077,None,-4,ayushi_final,001,2024-09-13_11h58.57.300,D4_exp4_SignalDetectionTheory,2024.1.5,None,2024-09-13 11h59.14.382580 +0530,
89,0,89,0,228.73506519998773,,228.72040130000096,228.73506519998773,229.73510399999213,229.73510399999213,230.63606499999878,up,0,0.8906621000205632,None,-2,ayushi_final,001,2024-09-13_11h58.57.300,D4_exp4_SignalDetectionTheory,2024.1.5,None,2024-09-13 11h59.14.382580 +0530,
90,0,90,0,230.65184249999584,,230.63732179999352,230.65184249999584,231.65188180000405,231.65188180000405,232.25280469999416,up,1,0.5851738000055775,None,0,ayushi_final,001,2024-09-13_11h58.57.300,D4_exp4_SignalDetectionTheory,2024.1.5,None,2024-09-13 11h59.14.382580 +0530,
91,0,91,0,232.26860380001017,,232.25418640000862,232.26860380001017,233.26876649999758,233.26876649999758,234.2361499000108,up,1,0.9563421999919228,None,0,ayushi_final,001,2024-09-13_11h58.57.300,D4_exp4_SignalDetectionTheory,2024.1.5,None,2024-09-13 11h59.14.382580 +0530,
92,0,92,0,234.25212069999543,,234.2374074999825,234.25212069999543,235.25248289998854,235.25248289998854,235.96995830000378,down,1,0.7090948999975808,None,-5,ayushi_final,001,2024-09-13_11h58.57.300,D4_exp4_SignalDetectionTheory,2024.1.5,None,2024-09-13 11h59.14.382580 +0530,
93,0,93,0,235.98574889998417,,235.97117770000477,235.98574889998417,236.9859962000046,236.9859962000046,237.97027109999908,up,1,0.9733186999801546,None,0,ayushi_final,001,2024-09-13_11h58.57.300,D4_exp4_SignalDetectionTheory,2024.1.5,None,2024-09-13 11h59.14.382580 +0530,
94,0,94,0,237.98585040000034,,237.97151780000422,237.98585040000034,238.98607419998734,238.98607419998734,243.65408929999103,down,0,4.651493499986827,None,0,ayushi_final,001,2024-09-13_11h58.57.300,D4_exp4_SignalDetectionTheory,2024.1.5,None,2024-09-13 11h59.14.382580 +0530,
95,0,95,0,243.66980869998224,,243.65563900000416,243.66980869998224,244.67001440000604,244.67001440000604,245.5708808999916,up,1,0.8895829000102822,None,0,ayushi_final,001,2024-09-13_11h58.57.300,D4_exp4_SignalDetectionTheory,2024.1.5,None,2024-09-13 11h59.14.382580 +0530,
96,0,96,0,245.58670029998757,,245.572110899986,245.58670029998757,246.58697489998303,246.58697489998303,247.25439620000543,up,1,0.6656700999883469,None,0,ayushi_final,001,2024-09-13_11h58.57.300,D4_exp4_SignalDetectionTheory,2024.1.5,None,2024-09-13 11h59.14.382580 +0530,
97,0,97,0,247.27017979999073,,247.25563179998426,247.27017979999073,248.270182200009,248.270182200009,249.05466269998578,down,1,0.7684077000012621,None,-4,ayushi_final,001,2024-09-13_11h58.57.300,D4_exp4_SignalDetectionTheory,2024.1.5,None,2024-09-13 11h59.14.382580 +0530,
98,0,98,0,249.07042619999265,,249.05592409998644,249.07042619999265,250.07051530000172,250.07051530000172,250.80454250000184,up,0,0.720922700013034,None,2,ayushi_final,001,2024-09-13_11h58.57.300,D4_exp4_SignalDetectionTheory,2024.1.5,None,2024-09-13 11h59.14.382580 +0530,
99,0,99,0,250.82044640000095,,250.80590909998864,250.82044640000095,251.82069510000292,251.82069510000292,252.7215162999928,up,0,0.8970968000066932,None,-5,ayushi_final,001,2024-09-13_11h58.57.300,D4_exp4_SignalDetectionTheory,2024.1.5,None,2024-09-13 11h59.14.382580 +0530,
