pos,corr_resp,trials.thisRepN,trials.thisTrialN,trials.thisN,trials.thisIndex,trials_2.thisRepN,trials_2.thisTrialN,trials_2.thisN,trials_2.thisIndex,thisRow.t,notes,trial.started,fixation.started,line1.started,line2.started,line3.started,line4.started,fixation.stopped,probe.started,key_resp.started,trial.stopped,key_resp.keys,key_resp.corr,key_resp.rt,key_resp.duration,participant,session,date,expName,psychopyVersion,frameRate,expStart
-50,x,0,0,0,0,,,,,0.0414442,,0.0341901,0.0414442,1.0062087,1.0062087,1.0062087,1.0062087,1.0561389,2.0063438,2.0063438,3.2772098,x,1,1.2189214,None,participant,1,2024-10-11_11h21.46.104,D6_exp6_MotorSequenceLearning,2024.1.5,None,2024-10-11 11h22.06.475114 +0530
150,v,0,1,1,1,,,,,3.2859065,,3.281381,3.2859065,4.2898509,4.2898509,4.2898509,4.2898509,4.2898509,5.2899913,5.2899913,5.7421867,v,1,0.4492173,None,participant,1,2024-10-11_11h21.46.104,D6_exp6_MotorSequenceLearning,2024.1.5,None,2024-10-11 11h22.06.475114 +0530
50,c,0,2,2,2,,,,,5.7571785,,5.7442125,5.7571785,6.7568417,6.7568417,6.7568417,6.7568417,6.7568417,7.7569355,7.7569355,8.5745625,c,1,0.8084687,None,participant,1,2024-10-11_11h21.46.104,D6_exp6_MotorSequenceLearning,2024.1.5,None,2024-10-11 11h22.06.475114 +0530
-150,z,0,3,3,3,,,,,8.5903982,,8.575758,8.5903982,9.5904679,9.5904679,9.5904679,9.5904679,9.5904679,10.5906571,10.5906571,10.9754199,z,1,0.3692203,None,participant,1,2024-10-11_11h21.46.104,D6_exp6_MotorSequenceLearning,2024.1.5,None,2024-10-11 11h22.06.475114 +0530
-50,x,1,0,4,0,,,,,10.9905395,,10.9785632,10.9905395,11.9905657,11.9905657,11.9905657,11.9905657,11.9905657,12.9907306,12.9907306,13.3260551,x,1,0.3239202,None,participant,1,2024-10-11_11h21.46.104,D6_exp6_MotorSequenceLearning,2024.1.5,None,2024-10-11 11h22.06.475114 +0530
150,v,1,1,5,1,,,,,13.3408617,,13.3281145,13.3408617,14.3409089,14.3409089,14.3409089,14.3409089,14.3409089,15.341052,15.341052,15.7927304,v,1,0.4432093,None,participant,1,2024-10-11_11h21.46.104,D6_exp6_MotorSequenceLearning,2024.1.5,None,2024-10-11 11h22.06.475114 +0530
50,c,1,2,6,2,,,,,15.8077248,,15.7945606,15.8077248,16.807777,16.807777,16.807777,16.807777,16.807777,17.8080273,17.8080273,18.209436,c,1,0.390487,None,participant,1,2024-10-11_11h21.46.104,D6_exp6_MotorSequenceLearning,2024.1.5,None,2024-10-11 11h22.06.475114 +0530
-150,z,1,3,7,3,,,,,18.224763,,18.2113063,18.224763,19.2248559,19.2248559,19.2248559,19.2248559,19.2248559,20.2248402,20.2248402,20.6098237,z,1,0.372603,None,participant,1,2024-10-11_11h21.46.104,D6_exp6_MotorSequenceLearning,2024.1.5,None,2024-10-11 11h22.06.475114 +0530
-50,x,2,0,8,0,,,,,20.6249027,,20.611788,20.6249027,21.624863,21.624863,21.624863,21.624863,21.624863,22.6251311,22.6251311,23.0931013,x,1,0.4626251,None,participant,1,2024-10-11_11h21.46.104,D6_exp6_MotorSequenceLearning,2024.1.5,None,2024-10-11 11h22.06.475114 +0530
150,v,2,1,9,1,,,,,23.1084154,,23.0941405,23.1084154,24.1085808,24.1085808,24.1085808,24.1085808,24.1085808,25.1087252,25.1087252,25.5102633,v,1,0.3982068,None,participant,1,2024-10-11_11h21.46.104,D6_exp6_MotorSequenceLearning,2024.1.5,None,2024-10-11 11h22.06.475114 +0530
50,c,2,2,10,2,,,,,25.5253326,,25.5122665,25.5253326,26.5257027,26.5257027,26.5257027,26.5257027,26.5257027,27.5257,27.5257,28.4100205,c,1,0.8674519,None,participant,1,2024-10-11_11h21.46.104,D6_exp6_MotorSequenceLearning,2024.1.5,None,2024-10-11 11h22.06.475114 +0530
-150,z,2,3,11,3,,,,,28.4257194,,28.4117026,28.4257194,29.4258965,29.4258965,29.4258965,29.4258965,29.4258965,30.4258623,30.4258623,30.8107917,z,1,0.3778073,None,participant,1,2024-10-11_11h21.46.104,D6_exp6_MotorSequenceLearning,2024.1.5,None,2024-10-11 11h22.06.475114 +0530
-50,x,3,0,12,0,,,,,30.8259675,,30.8126167,30.8259675,31.8259693,31.8259693,31.8259693,31.8259693,31.8259693,32.8261202,32.8261202,33.2775949,x,1,0.4414761,None,participant,1,2024-10-11_11h21.46.104,D6_exp6_MotorSequenceLearning,2024.1.5,None,2024-10-11 11h22.06.475114 +0530
150,v,3,1,13,1,,,,,33.2927812,,33.2793474,33.2927812,34.2928811,34.2928811,34.2928811,34.2928811,34.2928811,35.2930747,35.2930747,37.6449356,v,1,2.3369406,None,participant,1,2024-10-11_11h21.46.104,D6_exp6_MotorSequenceLearning,2024.1.5,None,2024-10-11 11h22.06.475114 +0530
50,c,3,2,14,2,,,,,37.6601735,,37.6473633,37.6601735,38.6600694,38.6600694,38.6600694,38.6600694,38.6600694,39.6601166,39.6601166,40.6782973,c,1,1.0123986,None,participant,1,2024-10-11_11h21.46.104,D6_exp6_MotorSequenceLearning,2024.1.5,None,2024-10-11 11h22.06.475114 +0530
-150,z,3,3,15,3,,,,,40.6935955,,40.6802406,40.6935955,41.6938065,41.6938065,41.6938065,41.6938065,41.6938065,42.693778,42.693778,43.4955331,z,1,0.7899638,None,participant,1,2024-10-11_11h21.46.104,D6_exp6_MotorSequenceLearning,2024.1.5,None,2024-10-11 11h22.06.475114 +0530
-50,x,4,0,16,0,,,,,43.5105867,,43.4974651,43.5105867,44.5107779,44.5107779,44.5107779,44.5107779,44.5107779,45.5108416,45.5108416,45.9124724,x,1,0.3864644,None,participant,1,2024-10-11_11h21.46.104,D6_exp6_MotorSequenceLearning,2024.1.5,None,2024-10-11 11h22.06.475114 +0530
150,v,4,1,17,1,,,,,45.9275917,,45.9145043,45.9275917,46.9275737,46.9275737,46.9275737,46.9275737,46.9275737,47.9276076,47.9276076,48.3125363,v,1,0.3756849,None,participant,1,2024-10-11_11h21.46.104,D6_exp6_MotorSequenceLearning,2024.1.5,None,2024-10-11 11h22.06.475114 +0530
50,c,4,2,18,2,,,,,48.3278381,,48.3143811,48.3278381,49.3278655,49.3278655,49.3278655,49.3278655,49.3278655,50.3279301,50.3279301,50.7463585,c,1,0.4146208,None,participant,1,2024-10-11_11h21.46.104,D6_exp6_MotorSequenceLearning,2024.1.5,None,2024-10-11 11h22.06.475114 +0530
-150,z,4,3,19,3,,,,,50.7612854,,50.7482689,50.7612854,51.7614601,51.7614601,51.7614601,51.7614601,51.7614601,52.7615902,52.7615902,53.4631148,z,1,0.6967377,None,participant,1,2024-10-11_11h21.46.104,D6_exp6_MotorSequenceLearning,2024.1.5,None,2024-10-11 11h22.06.475114 +0530
-50,x,5,0,20,0,,,,,53.478557,,53.4651602,53.478557,54.478297,54.478297,54.478297,54.478297,54.478297,55.4785417,55.4785417,55.846603,x,1,0.3581585,None,participant,1,2024-10-11_11h21.46.104,D6_exp6_MotorSequenceLearning,2024.1.5,None,2024-10-11 11h22.06.475114 +0530
150,v,5,1,21,1,,,,,55.8618321,,55.8483657,55.8618321,56.861932,56.861932,56.861932,56.861932,56.861932,57.8621052,57.8621052,58.314682,v,1,0.4505445,None,participant,1,2024-10-11_11h21.46.104,D6_exp6_MotorSequenceLearning,2024.1.5,None,2024-10-11 11h22.06.475114 +0530
50,c,5,2,22,2,,,,,58.3287247,,58.3164538,58.3287247,59.3288116,59.3288116,59.3288116,59.3288116,59.3288116,60.3290126,60.3290126,61.430578,c,1,1.0847266,None,participant,1,2024-10-11_11h21.46.104,D6_exp6_MotorSequenceLearning,2024.1.5,None,2024-10-11 11h22.06.475114 +0530
-150,z,5,3,23,3,,,,,61.4458654,,61.4325657,61.4458654,62.4459101,62.4459101,62.4459101,62.4459101,62.4459101,63.4459401,63.4459401,63.8474156,z,1,0.3975345,None,participant,1,2024-10-11_11h21.46.104,D6_exp6_MotorSequenceLearning,2024.1.5,None,2024-10-11 11h22.06.475114 +0530
-50,x,6,0,24,0,,,,,63.862653,,63.8491326,63.862653,64.8628473,64.8628473,64.8628473,64.8628473,64.8628473,65.8629192,65.8629192,66.28131,x,1,0.4151708,None,participant,1,2024-10-11_11h21.46.104,D6_exp6_MotorSequenceLearning,2024.1.5,None,2024-10-11 11h22.06.475114 +0530
150,v,6,1,25,1,,,,,66.2968733,,66.2829475,66.2968733,67.2963862,67.2963862,67.2963862,67.2963862,67.2963862,68.2964802,68.2964802,68.8981786,v,1,0.5926232,None,participant,1,2024-10-11_11h21.46.104,D6_exp6_MotorSequenceLearning,2024.1.5,None,2024-10-11 11h22.06.475114 +0530
50,c,6,2,26,2,,,,,68.9137017,,68.9000016,68.9137017,69.9131882,69.9131882,69.9131882,69.9131882,69.9131882,70.9134897,70.9134897,71.3152644,c,1,0.3993699,None,participant,1,2024-10-11_11h21.46.104,D6_exp6_MotorSequenceLearning,2024.1.5,None,2024-10-11 11h22.06.475114 +0530
-150,z,6,3,27,3,,,,,71.3300802,,71.3172613,71.3300802,72.3302394,72.3302394,72.3302394,72.3302394,72.3302394,73.3303807,73.3303807,73.6490882,z,1,0.316176,None,participant,1,2024-10-11_11h21.46.104,D6_exp6_MotorSequenceLearning,2024.1.5,None,2024-10-11 11h22.06.475114 +0530
-50,x,7,0,28,0,,,,,73.6636833,,73.6523671,73.6636833,74.6637656,74.6637656,74.6637656,74.6637656,74.6637656,75.6638573,75.6638573,76.215547,x,1,0.5430926,None,participant,1,2024-10-11_11h21.46.104,D6_exp6_MotorSequenceLearning,2024.1.5,None,2024-10-11 11h22.06.475114 +0530
150,v,7,1,29,1,,,,,76.2306314,,76.2175376,76.2306314,77.2310996,77.2310996,77.2310996,77.2310996,77.2310996,78.2307622,78.2307622,79.2322724,v,1,0.9887053,None,participant,1,2024-10-11_11h21.46.104,D6_exp6_MotorSequenceLearning,2024.1.5,None,2024-10-11 11h22.06.475114 +0530
50,c,7,2,30,2,,,,,79.2476214,,79.2336959,79.2476214,80.2477029,80.2477029,80.2477029,80.2477029,80.2477029,81.2479109,81.2479109,81.7494936,c,1,0.4893972,None,participant,1,2024-10-11_11h21.46.104,D6_exp6_MotorSequenceLearning,2024.1.5,None,2024-10-11 11h22.06.475114 +0530
-150,z,7,3,31,3,,,,,81.7645255,,81.7514467,81.7645255,82.7645582,82.7645582,82.7645582,82.7645582,82.7645582,83.7647447,83.7647447,84.1500994,z,1,0.3829232,None,participant,1,2024-10-11_11h21.46.104,D6_exp6_MotorSequenceLearning,2024.1.5,None,2024-10-11 11h22.06.475114 +0530
-50,x,8,0,32,0,,,,,84.1647831,,84.1521041,84.1647831,85.1649828,85.1649828,85.1649828,85.1649828,85.1649828,86.1650918,86.1650918,86.6497065,x,1,0.4679758,None,participant,1,2024-10-11_11h21.46.104,D6_exp6_MotorSequenceLearning,2024.1.5,None,2024-10-11 11h22.06.475114 +0530
150,v,8,1,33,1,,,,,86.6651649,,86.6516405,86.6651649,87.6651497,87.6651497,87.6651497,87.6651497,87.6651497,88.6653654,88.6653654,89.1841063,v,1,0.5111169,None,participant,1,2024-10-11_11h21.46.104,D6_exp6_MotorSequenceLearning,2024.1.5,None,2024-10-11 11h22.06.475114 +0530
50,c,8,2,34,2,,,,,89.1987569,,89.1863201,89.1987569,90.1987691,90.1987691,90.1987691,90.1987691,90.1987691,91.198806,91.198806,91.750479,c,1,0.5385937,None,participant,1,2024-10-11_11h21.46.104,D6_exp6_MotorSequenceLearning,2024.1.5,None,2024-10-11 11h22.06.475114 +0530
-150,z,8,3,35,3,,,,,91.7657025,,91.7523503,91.7657025,92.765745,92.765745,92.765745,92.765745,92.765745,93.76585,93.76585,94.1673157,z,1,0.3865824,None,participant,1,2024-10-11_11h21.46.104,D6_exp6_MotorSequenceLearning,2024.1.5,None,2024-10-11 11h22.06.475114 +0530
-50,x,9,0,36,0,,,,,94.1826647,,94.1691955,94.1826647,95.1825921,95.1825921,95.1825921,95.1825921,95.1825921,96.1826448,96.1826448,96.650899,x,1,0.4506309,None,participant,1,2024-10-11_11h21.46.104,D6_exp6_MotorSequenceLearning,2024.1.5,None,2024-10-11 11h22.06.475114 +0530
150,v,9,1,37,1,,,,,96.666208,,96.6529502,96.666208,97.6662971,97.6662971,97.6662971,97.6662971,97.6662971,98.6662094,98.6662094,99.0511955,v,1,0.3803877,None,participant,1,2024-10-11_11h21.46.104,D6_exp6_MotorSequenceLearning,2024.1.5,None,2024-10-11 11h22.06.475114 +0530
50,c,9,2,38,2,,,,,99.0664434,,99.0531672,99.0664434,100.066342,100.066342,100.066342,100.066342,100.066342,101.0664294,101.0664294,101.5179168,c,1,0.4346623,None,participant,1,2024-10-11_11h21.46.104,D6_exp6_MotorSequenceLearning,2024.1.5,None,2024-10-11 11h22.06.475114 +0530
-150,z,9,3,39,3,,,,,101.5333658,,101.519907,101.5333658,102.5333864,102.5333864,102.5333864,102.5333864,102.5333864,103.5334071,103.5334071,103.9850343,z,1,0.4478565,None,participant,1,2024-10-11_11h21.46.104,D6_exp6_MotorSequenceLearning,2024.1.5,None,2024-10-11 11h22.06.475114 +0530
-50,x,10,0,40,0,,,,,104.0002716,,103.9870204,104.0002716,105.0003632,105.0003632,105.0003632,105.0003632,105.0003632,106.0005848,106.0005848,106.4685364,x,1,0.4603176,None,participant,1,2024-10-11_11h21.46.104,D6_exp6_MotorSequenceLearning,2024.1.5,None,2024-10-11 11h22.06.475114 +0530
150,v,10,1,41,1,,,,,106.4838461,,106.4704797,106.4838461,107.4837893,107.4837893,107.4837893,107.4837893,107.4837893,108.483886,108.483886,109.0189007,v,1,0.5274389,None,participant,1,2024-10-11_11h21.46.104,D6_exp6_MotorSequenceLearning,2024.1.5,None,2024-10-11 11h22.06.475114 +0530
50,c,10,2,42,2,,,,,109.0341411,,109.020856,109.0341411,110.0341976,110.0341976,110.0341976,110.0341976,110.0341976,111.0341594,111.0341594,111.8360603,c,1,0.7974264,None,participant,1,2024-10-11_11h21.46.104,D6_exp6_MotorSequenceLearning,2024.1.5,None,2024-10-11 11h22.06.475114 +0530
-150,z,10,3,43,3,,,,,111.8509309,,111.8381089,111.8509309,112.8511489,112.8511489,112.8511489,112.8511489,112.8511489,113.8512984,113.8512984,114.2860107,z,1,0.4299988,None,participant,1,2024-10-11_11h21.46.104,D6_exp6_MotorSequenceLearning,2024.1.5,None,2024-10-11 11h22.06.475114 +0530
-50,x,11,0,44,0,,,,,114.3013155,,114.2879492,114.3013155,115.3012795,115.3012795,115.3012795,115.3012795,115.3012795,116.3014107,116.3014107,117.2029812,x,1,0.8968079,None,participant,1,2024-10-11_11h21.46.104,D6_exp6_MotorSequenceLearning,2024.1.5,None,2024-10-11 11h22.06.475114 +0530
150,v,11,1,45,1,,,,,117.2182032,,117.2048675,117.2182032,118.2183759,118.2183759,118.2183759,118.2183759,118.2183759,119.2183663,119.2183663,119.8532498,v,1,0.6202872,None,participant,1,2024-10-11_11h21.46.104,D6_exp6_MotorSequenceLearning,2024.1.5,None,2024-10-11 11h22.06.475114 +0530
50,c,11,2,46,2,,,,,119.8686424,,119.8551916,119.8686424,120.8685825,120.8685825,120.8685825,120.8685825,120.8685825,121.8686923,121.8686923,122.8872229,c,1,1.0119912,None,participant,1,2024-10-11_11h21.46.104,D6_exp6_MotorSequenceLearning,2024.1.5,None,2024-10-11 11h22.06.475114 +0530
-150,z,11,3,47,3,,,,,122.9032117,,122.8892952,122.9032117,123.9024089,123.9024089,123.9024089,123.9024089,123.9024089,124.9023838,124.9023838,125.4205284,z,1,0.5078954,None,participant,1,2024-10-11_11h21.46.104,D6_exp6_MotorSequenceLearning,2024.1.5,None,2024-10-11 11h22.06.475114 +0530
-50,x,12,0,48,0,,,,,125.4357333,,125.4220708,125.4357333,126.4358434,126.4358434,126.4358434,126.4358434,126.4358434,127.4362322,127.4362322,127.9213104,x,1,0.4685264,None,participant,1,2024-10-11_11h21.46.104,D6_exp6_MotorSequenceLearning,2024.1.5,None,2024-10-11 11h22.06.475114 +0530
150,v,12,1,49,1,,,,,127.9360843,,127.9236896,127.9360843,128.9360771,128.9360771,128.9360771,128.9360771,128.9360771,129.9364658,129.9364658,130.4209285,v,1,0.4736151,None,participant,1,2024-10-11_11h21.46.104,D6_exp6_MotorSequenceLearning,2024.1.5,None,2024-10-11 11h22.06.475114 +0530
50,c,12,2,50,2,,,,,130.436287,,130.4244315,130.436287,131.4363629,131.4363629,131.4363629,131.4363629,131.4363629,132.4363807,132.4363807,133.0051238,c,1,0.5536754,None,participant,1,2024-10-11_11h21.46.104,D6_exp6_MotorSequenceLearning,2024.1.5,None,2024-10-11 11h22.06.475114 +0530
-150,z,12,3,51,3,,,,,133.0198554,,133.0066832,133.0198554,134.0199547,134.0199547,134.0199547,134.0199547,134.0199547,135.0203062,135.0203062,135.7223865,z,1,0.7001652,None,participant,1,2024-10-11_11h21.46.104,D6_exp6_MotorSequenceLearning,2024.1.5,None,2024-10-11 11h22.06.475114 +0530
-50,x,13,0,52,0,,,,,135.7371812,,135.7249427,135.7371812,136.7368556,136.7368556,136.7368556,136.7368556,136.7368556,137.7370906,137.7370906,138.9715464,x,1,1.2255917,None,participant,1,2024-10-11_11h21.46.104,D6_exp6_MotorSequenceLearning,2024.1.5,None,2024-10-11 11h22.06.475114 +0530
150,v,13,1,53,1,,,,,138.9872014,,138.9729703,138.9872014,139.9875031,139.9875031,139.9875031,139.9875031,139.9875031,140.9873471,140.9873471,141.8723378,v,1,0.8785178,None,participant,1,2024-10-11_11h21.46.104,D6_exp6_MotorSequenceLearning,2024.1.5,None,2024-10-11 11h22.06.475114 +0530
50,c,13,2,54,2,,,,,141.8875097,,141.8740583,141.8875097,142.8875658,142.8875658,142.8875658,142.8875658,142.8875658,143.8875214,143.8875214,145.1390356,c,1,1.2348778,None,participant,1,2024-10-11_11h21.46.104,D6_exp6_MotorSequenceLearning,2024.1.5,None,2024-10-11 11h22.06.475114 +0530
-150,z,13,3,55,3,,,,,145.1544328,,145.1409662,145.1544328,146.1546583,146.1546583,146.1546583,146.1546583,146.1546583,147.1546275,147.1546275,148.0896146,z,1,0.9198343,None,participant,1,2024-10-11_11h21.46.104,D6_exp6_MotorSequenceLearning,2024.1.5,None,2024-10-11 11h22.06.475114 +0530
-50,x,14,0,56,0,,,,,148.1048245,,148.0915381,148.1048245,149.1049422,149.1049422,149.1049422,149.1049422,149.1049422,150.104982,150.104982,150.6228174,x,1,0.5072667,None,participant,1,2024-10-11_11h21.46.104,D6_exp6_MotorSequenceLearning,2024.1.5,None,2024-10-11 11h22.06.475114 +0530
150,v,14,1,57,1,,,,,150.6383506,,150.6242788,150.6383506,151.6384687,151.6384687,151.6384687,151.6384687,151.6384687,152.6389736,152.6389736,153.1235431,v,1,0.47262,None,participant,1,2024-10-11_11h21.46.104,D6_exp6_MotorSequenceLearning,2024.1.5,None,2024-10-11 11h22.06.475114 +0530
50,c,14,2,58,2,,,,,153.1386817,,153.1255118,153.1386817,154.1388581,154.1388581,154.1388581,154.1388581,154.1388581,155.1389313,155.1389313,155.7235036,c,1,0.5674979,None,participant,1,2024-10-11_11h21.46.104,D6_exp6_MotorSequenceLearning,2024.1.5,None,2024-10-11 11h22.06.475114 +0530
-150,z,14,3,59,3,,,,,155.7436349,,155.7256076,155.7436349,156.738995,156.738995,156.738995,156.738995,156.7556351,157.7390726,157.7390726,158.5735314,z,1,0.8187524,None,participant,1,2024-10-11_11h21.46.104,D6_exp6_MotorSequenceLearning,2024.1.5,None,2024-10-11 11h22.06.475114 +0530
-50,x,15,0,60,0,,,,,158.5891691,,158.5750877,158.5891691,159.5892695,159.5892695,159.5892695,159.5892695,159.5892695,160.5892512,160.5892512,160.9909256,x,1,0.3933267,None,participant,1,2024-10-11_11h21.46.104,D6_exp6_MotorSequenceLearning,2024.1.5,None,2024-10-11 11h22.06.475114 +0530
150,v,15,1,61,1,,,,,161.0060471,,160.9938977,161.0060471,162.0063216,162.0063216,162.0063216,162.0063216,162.0063216,163.0062596,163.0062596,163.4746663,v,1,0.4614182,None,participant,1,2024-10-11_11h21.46.104,D6_exp6_MotorSequenceLearning,2024.1.5,None,2024-10-11 11h22.06.475114 +0530
50,c,15,2,62,2,,,,,163.4895564,,163.4760363,163.4895564,164.4897351,164.4897351,164.4897351,164.4897351,164.4897351,165.4899665,165.4899665,166.7244028,c,1,1.2169875,None,participant,1,2024-10-11_11h21.46.104,D6_exp6_MotorSequenceLearning,2024.1.5,None,2024-10-11 11h22.06.475114 +0530
-150,z,15,3,63,3,,,,,166.7404581,,166.7261846,166.7404581,167.7402303,167.7402303,167.7402303,167.7402303,167.7402303,168.7405746,168.7405746,169.1587079,z,1,0.4145685,None,participant,1,2024-10-11_11h21.46.104,D6_exp6_MotorSequenceLearning,2024.1.5,None,2024-10-11 11h22.06.475114 +0530
-50,x,16,0,64,0,,,,,169.1735044,,169.1606296,169.1735044,170.1736085,170.1736085,170.1736085,170.1736085,170.1736085,171.1740685,171.1740685,171.6756169,x,1,0.4951659,None,participant,1,2024-10-11_11h21.46.104,D6_exp6_MotorSequenceLearning,2024.1.5,None,2024-10-11 11h22.06.475114 +0530
150,v,16,1,65,1,,,,,171.6905163,,171.6778022,171.6905163,172.6912218,172.6912218,172.6912218,172.6912218,172.6912218,173.6907452,173.6907452,174.2097901,v,1,0.5102876,None,participant,1,2024-10-11_11h21.46.104,D6_exp6_MotorSequenceLearning,2024.1.5,None,2024-10-11 11h22.06.475114 +0530
50,c,16,2,66,2,,,,,174.2243105,,174.2118818,174.2243105,175.2242996,175.2242996,175.2242996,175.2242996,175.2242996,176.2244716,176.2244716,177.2259431,c,1,0.9973217,None,participant,1,2024-10-11_11h21.46.104,D6_exp6_MotorSequenceLearning,2024.1.5,None,2024-10-11 11h22.06.475114 +0530
-150,z,16,3,67,3,,,,,177.2411696,,177.2279396,177.2411696,178.241154,178.241154,178.241154,178.241154,178.241154,179.2413788,179.2413788,179.9772305,z,1,0.7257684,None,participant,1,2024-10-11_11h21.46.104,D6_exp6_MotorSequenceLearning,2024.1.5,None,2024-10-11 11h22.06.475114 +0530
-50,x,17,0,68,0,,,,,179.9913973,,179.9792864,179.9913973,180.9914979,180.9914979,180.9914979,180.9914979,180.9914979,181.9914821,181.9914821,183.0263087,x,1,1.0173626,None,participant,1,2024-10-11_11h21.46.104,D6_exp6_MotorSequenceLearning,2024.1.5,None,2024-10-11 11h22.06.475114 +0530
150,v,17,1,69,1,,,,,183.0418085,,183.0281866,183.0418085,184.042104,184.042104,184.042104,184.042104,184.042104,185.0418586,185.0418586,185.8606259,v,1,0.813538,None,participant,1,2024-10-11_11h21.46.104,D6_exp6_MotorSequenceLearning,2024.1.5,None,2024-10-11 11h22.06.475114 +0530
50,c,17,2,70,2,,,,,185.8756739,,185.8622261,185.8756739,186.8753478,186.8753478,186.8753478,186.8753478,186.8753478,187.8754425,187.8754425,188.7771406,c,1,0.886342,None,participant,1,2024-10-11_11h21.46.104,D6_exp6_MotorSequenceLearning,2024.1.5,None,2024-10-11 11h22.06.475114 +0530
-150,z,17,3,71,3,,,,,188.7924117,,188.7791412,188.7924117,189.7924142,189.7924142,189.7924142,189.7924142,189.7924142,190.7925067,190.7925067,191.7638249,z,1,0.9562234,None,participant,1,2024-10-11_11h21.46.104,D6_exp6_MotorSequenceLearning,2024.1.5,None,2024-10-11 11h22.06.475114 +0530
-50,x,18,0,72,0,,,,,191.7758932,,191.7656175,191.7758932,192.775989,192.775989,192.775989,192.775989,192.775989,193.776347,193.776347,195.0279405,x,1,1.246212,None,participant,1,2024-10-11_11h21.46.104,D6_exp6_MotorSequenceLearning,2024.1.5,None,2024-10-11 11h22.06.475114 +0530
150,v,18,1,73,1,,,,,195.0429911,,195.0295617,195.0429911,196.0435047,196.0435047,196.0435047,196.0435047,196.0435047,197.0434655,197.0434655,197.7279621,v,1,0.6741405,None,participant,1,2024-10-11_11h21.46.104,D6_exp6_MotorSequenceLearning,2024.1.5,None,2024-10-11 11h22.06.475114 +0530
50,c,18,2,74,2,,,,,197.7434046,,197.7299022,197.7434046,198.743618,198.743618,198.743618,198.743618,198.743618,199.7434602,199.7434602,200.5944362,c,1,0.834532,None,participant,1,2024-10-11_11h21.46.104,D6_exp6_MotorSequenceLearning,2024.1.5,None,2024-10-11 11h22.06.475114 +0530
-150,z,18,3,75,3,,,,,200.6107104,,200.5965575,200.6107104,201.6103389,201.6103389,201.6103389,201.6103389,201.6103389,202.6103538,202.6103538,203.1959849,z,1,0.5826878,None,participant,1,2024-10-11_11h21.46.104,D6_exp6_MotorSequenceLearning,2024.1.5,None,2024-10-11 11h22.06.475114 +0530
-50,x,19,0,76,0,,,,,203.2105343,,203.1979264,203.2105343,204.2105462,204.2105462,204.2105462,204.2105462,204.2105462,205.2107213,205.2107213,205.7462928,x,1,0.5327796,None,participant,1,2024-10-11_11h21.46.104,D6_exp6_MotorSequenceLearning,2024.1.5,None,2024-10-11 11h22.06.475114 +0530
150,v,19,1,77,1,,,,,205.7607417,,205.7487983,205.7607417,206.761188,206.761188,206.761188,206.761188,206.761188,207.7609694,207.7609694,208.4963317,v,1,0.7228838,None,participant,1,2024-10-11_11h21.46.104,D6_exp6_MotorSequenceLearning,2024.1.5,None,2024-10-11 11h22.06.475114 +0530
50,c,19,2,78,2,,,,,208.5110458,,208.498726,208.5110458,209.5111973,209.5111973,209.5111973,209.5111973,209.5111973,210.5111178,210.5111178,211.8622992,c,1,1.346413,None,participant,1,2024-10-11_11h21.46.104,D6_exp6_MotorSequenceLearning,2024.1.5,None,2024-10-11 11h22.06.475114 +0530
-150,z,19,3,79,3,,,,,211.8780483,,211.8632541,211.8780483,212.8781254,212.8781254,212.8781254,212.8781254,212.8781254,213.8781836,213.8781836,214.5625193,z,1,0.6815859,None,participant,1,2024-10-11_11h21.46.104,D6_exp6_MotorSequenceLearning,2024.1.5,None,2024-10-11 11h22.06.475114 +0530
-50,x,20,0,80,0,,,,,214.5782736,,214.5634544,214.5782736,215.5788517,215.5788517,215.5788517,215.5788517,215.5788517,216.5788063,216.5788063,217.1966907,x,1,0.6042924,None,participant,1,2024-10-11_11h21.46.104,D6_exp6_MotorSequenceLearning,2024.1.5,None,2024-10-11 11h22.06.475114 +0530
150,v,20,1,81,1,,,,,217.2124731,,217.199406,217.2124731,218.2119884,218.2119884,218.2119884,218.2119884,218.2119884,219.2120541,219.2120541,220.0799613,v,1,0.8625942,None,participant,1,2024-10-11_11h21.46.104,D6_exp6_MotorSequenceLearning,2024.1.5,None,2024-10-11 11h22.06.475114 +0530
50,c,20,2,82,2,,,,,220.0959431,,220.0811775,220.0959431,221.0824641,221.0824641,221.0824641,221.0824641,221.0956723,222.0790605,222.0790605,223.2967793,c,1,1.208137,None,participant,1,2024-10-11_11h21.46.104,D6_exp6_MotorSequenceLearning,2024.1.5,None,2024-10-11 11h22.06.475114 +0530
-150,z,20,3,83,3,,,,,223.3124625,,223.2979446,223.3124625,224.3126119,224.3126119,224.3126119,224.3126119,224.3126119,225.3131491,225.3131491,225.7307112,z,1,0.413909,None,participant,1,2024-10-11_11h21.46.104,D6_exp6_MotorSequenceLearning,2024.1.5,None,2024-10-11 11h22.06.475114 +0530
-50,x,21,0,84,0,,,,,225.7463014,,225.7324464,225.7463014,226.7464257,226.7464257,226.7464257,226.7464257,226.7464257,227.7462533,227.7462533,228.230893,x,1,0.474139,None,participant,1,2024-10-11_11h21.46.104,D6_exp6_MotorSequenceLearning,2024.1.5,None,2024-10-11 11h22.06.475114 +0530
150,v,21,1,85,1,,,,,228.2463583,,228.2320547,228.2463583,229.2464881,229.2464881,229.2464881,229.2464881,229.2464881,230.2472924,230.2472924,230.8983691,v,1,0.6393651,None,participant,1,2024-10-11_11h21.46.104,D6_exp6_MotorSequenceLearning,2024.1.5,None,2024-10-11 11h22.06.475114 +0530
50,c,21,2,86,2,,,,,230.9136215,,230.8996005,230.9136215,231.9135805,231.9135805,231.9135805,231.9135805,231.9135805,232.9135576,232.9135576,233.7988887,c,1,0.8691545,None,participant,1,2024-10-11_11h21.46.104,D6_exp6_MotorSequenceLearning,2024.1.5,None,2024-10-11 11h22.06.475114 +0530
-150,z,21,3,87,3,,,,,233.8136475,,233.8017018,233.8136475,234.8138635,234.8138635,234.8138635,234.8138635,234.8138635,235.8137025,235.8137025,236.7486045,z,1,0.9316814,None,participant,1,2024-10-11_11h21.46.104,D6_exp6_MotorSequenceLearning,2024.1.5,None,2024-10-11 11h22.06.475114 +0530
-50,x,22,0,88,0,,,,,236.7639499,,236.7500611,236.7639499,237.7641795,237.7641795,237.7641795,237.7641795,237.7641795,238.7641312,238.7641312,239.3319683,x,1,0.5514199,None,participant,1,2024-10-11_11h21.46.104,D6_exp6_MotorSequenceLearning,2024.1.5,None,2024-10-11 11h22.06.475114 +0530
150,v,22,1,89,1,,,,,239.3475849,,239.3331631,239.3475849,240.3476795,240.3476795,240.3476795,240.3476795,240.3476795,241.3476765,241.3476765,241.9665907,v,1,0.6069861,None,participant,1,2024-10-11_11h21.46.104,D6_exp6_MotorSequenceLearning,2024.1.5,None,2024-10-11 11h22.06.475114 +0530
50,c,22,2,90,2,,,,,241.9814251,,241.9700009,241.9814251,242.9813021,242.9813021,242.9813021,242.9813021,242.9813021,243.981408,243.981408,244.800513,c,1,0.8047012,None,participant,1,2024-10-11_11h21.46.104,D6_exp6_MotorSequenceLearning,2024.1.5,None,2024-10-11 11h22.06.475114 +0530
-150,z,22,3,91,3,,,,,244.8148637,,244.8022783,244.8148637,245.8147611,245.8147611,245.8147611,245.8147611,245.8147611,246.814988,246.814988,247.5011798,z,1,0.6824316,None,participant,1,2024-10-11_11h21.46.104,D6_exp6_MotorSequenceLearning,2024.1.5,None,2024-10-11 11h22.06.475114 +0530
-50,x,23,0,92,0,,,,,247.5151287,,247.503444,247.5151287,248.5152398,248.5152398,248.5152398,248.5152398,248.5152398,249.5152084,249.5152084,249.9007246,x,1,0.3716967,None,participant,1,2024-10-11_11h21.46.104,D6_exp6_MotorSequenceLearning,2024.1.5,None,2024-10-11 11h22.06.475114 +0530
150,v,23,1,93,1,,,,,249.9156444,,249.9023755,249.9156444,250.9153442,250.9153442,250.9153442,250.9153442,250.9153442,251.9154598,251.9154598,252.4670982,v,1,0.5358649,None,participant,1,2024-10-11_11h21.46.104,D6_exp6_MotorSequenceLearning,2024.1.5,None,2024-10-11 11h22.06.475114 +0530
50,c,23,2,94,2,,,,,252.4826924,,252.4684564,252.4826924,253.4828357,253.4828357,253.4828357,253.4828357,253.4828357,254.4824933,254.4824933,255.4014221,c,1,0.9107755,None,participant,1,2024-10-11_11h21.46.104,D6_exp6_MotorSequenceLearning,2024.1.5,None,2024-10-11 11h22.06.475114 +0530
-150,z,23,3,95,3,,,,,255.4161909,,255.4042136,255.4161909,256.4161709,256.4161709,256.4161709,256.4161709,256.4161709,257.4160317,257.4160317,257.9171117,z,1,0.4876256,None,participant,1,2024-10-11_11h21.46.104,D6_exp6_MotorSequenceLearning,2024.1.5,None,2024-10-11 11h22.06.475114 +0530
-50,x,24,0,96,0,,,,,257.9333536,,257.91841,257.9333536,258.9336186,258.9336186,258.9336186,258.9336186,258.9336186,259.933423,259.933423,260.3851503,x,1,0.449369,None,participant,1,2024-10-11_11h21.46.104,D6_exp6_MotorSequenceLearning,2024.1.5,None,2024-10-11 11h22.06.475114 +0530
150,v,24,1,97,1,,,,,260.399719,,260.3863442,260.399719,261.4003064,261.4003064,261.4003064,261.4003064,261.4003064,262.4005559,262.4005559,262.7020264,v,1,0.2861429,None,participant,1,2024-10-11_11h21.46.104,D6_exp6_MotorSequenceLearning,2024.1.5,None,2024-10-11 11h22.06.475114 +0530
50,c,24,2,98,2,,,,,262.7168187,,262.7038154,262.7168187,263.7166711,263.7166711,263.7166711,263.7166711,263.7166711,264.7175624,264.7175624,265.4861147,c,1,0.7654239,None,participant,1,2024-10-11_11h21.46.104,D6_exp6_MotorSequenceLearning,2024.1.5,None,2024-10-11 11h22.06.475114 +0530
-150,z,24,3,99,3,,,,,265.5002284,,265.4878334,265.5002284,266.5008746,266.5008746,266.5008746,266.5008746,266.5008746,267.5005132,267.5005132,268.202356,z,1,0.6935324,None,participant,1,2024-10-11_11h21.46.104,D6_exp6_MotorSequenceLearning,2024.1.5,None,2024-10-11 11h22.06.475114 +0530
-50,x,25,0,100,0,,,,,268.2176315,,268.2052253,268.2176315,269.2174183,269.2174183,269.2174183,269.2174183,269.2174183,270.2173835,270.2173835,270.7865181,x,1,0.5659537,None,participant,1,2024-10-11_11h21.46.104,D6_exp6_MotorSequenceLearning,2024.1.5,None,2024-10-11 11h22.06.475114 +0530
150,v,25,1,101,1,,,,,270.8014301,,270.7893438,270.8014301,271.8009939,271.8009939,271.8009939,271.8009939,271.8009939,272.8009575,272.8009575,273.1697607,v,1,0.3517259,None,participant,1,2024-10-11_11h21.46.104,D6_exp6_MotorSequenceLearning,2024.1.5,None,2024-10-11 11h22.06.475114 +0530
50,c,25,2,102,2,,,,,273.1845321,,273.1715893,273.1845321,274.1845165,274.1845165,274.1845165,274.1845165,274.1845165,275.1851536,275.1851536,275.8027154,c,1,0.6081787,None,participant,1,2024-10-11_11h21.46.104,D6_exp6_MotorSequenceLearning,2024.1.5,None,2024-10-11 11h22.06.475114 +0530
-150,z,25,3,103,3,,,,,275.8179717,,275.8043579,275.8179717,276.8180399,276.8180399,276.8180399,276.8180399,276.8180399,277.8189372,277.8189372,278.3871267,z,1,0.5647754,None,participant,1,2024-10-11_11h21.46.104,D6_exp6_MotorSequenceLearning,2024.1.5,None,2024-10-11 11h22.06.475114 +0530
-50,x,26,0,104,0,,,,,278.4016215,,278.38884,278.4016215,279.4015964,279.4015964,279.4015964,279.4015964,279.4015964,280.4017274,280.4017274,280.7876035,x,1,0.3767,None,participant,1,2024-10-11_11h21.46.104,D6_exp6_MotorSequenceLearning,2024.1.5,None,2024-10-11 11h22.06.475114 +0530
150,v,26,1,105,1,,,,,280.8019884,,280.7895405,280.8019884,281.8020252,281.8020252,281.8020252,281.8020252,281.8020252,282.8021243,282.8021243,283.1382224,v,1,0.33071,None,participant,1,2024-10-11_11h21.46.104,D6_exp6_MotorSequenceLearning,2024.1.5,None,2024-10-11 11h22.06.475114 +0530
50,c,26,2,106,2,,,,,283.1524726,,283.1401804,283.1524726,284.1522227,284.1522227,284.1522227,284.1522227,284.1522227,285.1523842,285.1523842,285.6373061,c,1,0.474715,None,participant,1,2024-10-11_11h21.46.104,D6_exp6_MotorSequenceLearning,2024.1.5,None,2024-10-11 11h22.06.475114 +0530
-150,z,26,3,107,3,,,,,285.6525084,,285.6403437,285.6525084,286.6529801,286.6529801,286.6529801,286.6529801,286.6529801,287.653195,287.653195,288.0543661,z,1,0.3939775,None,participant,1,2024-10-11_11h21.46.104,D6_exp6_MotorSequenceLearning,2024.1.5,None,2024-10-11 11h22.06.475114 +0530
-50,x,27,0,108,0,,,,,288.0695007,,288.0570668,288.0695007,289.0694942,289.0694942,289.0694942,289.0694942,289.0694942,290.0702805,290.0702805,290.5215206,x,1,0.4406709,None,participant,1,2024-10-11_11h21.46.104,D6_exp6_MotorSequenceLearning,2024.1.5,None,2024-10-11 11h22.06.475114 +0530
150,v,27,1,109,1,,,,,290.5366302,,290.5232642,290.5366302,291.5363267,291.5363267,291.5363267,291.5363267,291.5363267,292.536775,292.536775,293.1887526,v,1,0.6413525,None,participant,1,2024-10-11_11h21.46.104,D6_exp6_MotorSequenceLearning,2024.1.5,None,2024-10-11 11h22.06.475114 +0530
50,c,27,2,110,2,,,,,293.2031478,,293.1900278,293.2031478,294.203159,294.203159,294.203159,294.203159,294.203159,295.203797,295.203797,295.739608,c,1,0.5229712,None,participant,1,2024-10-11_11h21.46.104,D6_exp6_MotorSequenceLearning,2024.1.5,None,2024-10-11 11h22.06.475114 +0530
-150,z,27,3,111,3,,,,,295.753825,,295.7415671,295.753825,296.7535324,296.7535324,296.7535324,296.7535324,296.7535324,297.7534776,297.7534776,298.1062193,z,1,0.3482131,None,participant,1,2024-10-11_11h21.46.104,D6_exp6_MotorSequenceLearning,2024.1.5,None,2024-10-11 11h22.06.475114 +0530
-50,x,28,0,112,0,,,,,298.1203337,,298.1081056,298.1203337,299.1212373,299.1212373,299.1212373,299.1212373,299.1212373,300.1210894,300.1210894,300.488849,x,1,0.3593974,None,participant,1,2024-10-11_11h21.46.104,D6_exp6_MotorSequenceLearning,2024.1.5,None,2024-10-11 11h22.06.475114 +0530
150,v,28,1,113,1,,,,,300.5041243,,300.491326,300.5041243,301.5043417,301.5043417,301.5043417,301.5043417,301.5043417,302.5041561,302.5041561,303.0897345,v,1,0.5814724,None,participant,1,2024-10-11_11h21.46.104,D6_exp6_MotorSequenceLearning,2024.1.5,None,2024-10-11 11h22.06.475114 +0530
50,c,28,2,114,2,,,,,303.1043526,,303.0921825,303.1043526,304.1043923,304.1043923,304.1043923,304.1043923,304.1043923,305.1042771,305.1042771,305.5729496,c,1,0.4612267,None,participant,1,2024-10-11_11h21.46.104,D6_exp6_MotorSequenceLearning,2024.1.5,None,2024-10-11 11h22.06.475114 +0530
-150,z,28,3,115,3,,,,,305.5878491,,305.5745128,305.5878491,306.5879059,306.5879059,306.5879059,306.5879059,306.5879059,307.5879222,307.5879222,308.3719399,z,1,0.7791468,None,participant,1,2024-10-11_11h21.46.104,D6_exp6_MotorSequenceLearning,2024.1.5,None,2024-10-11 11h22.06.475114 +0530
-50,x,29,0,116,0,,,,,308.388377,,308.372837,308.388377,309.3882172,309.3882172,309.3882172,309.3882172,309.3882172,310.3719788,310.3719788,310.8237834,x,1,0.4444659,None,participant,1,2024-10-11_11h21.46.104,D6_exp6_MotorSequenceLearning,2024.1.5,None,2024-10-11 11h22.06.475114 +0530
150,v,29,1,117,1,,,,,310.8383334,,310.8258032,310.8383334,311.8383407,311.8383407,311.8383407,311.8383407,311.8383407,312.8384953,312.8384953,313.4909836,v,1,0.6448613,None,participant,1,2024-10-11_11h21.46.104,D6_exp6_MotorSequenceLearning,2024.1.5,None,2024-10-11 11h22.06.475114 +0530
50,c,29,2,118,2,,,,,313.5053148,,313.4925496,313.5053148,314.5055812,314.5055812,314.5055812,314.5055812,314.5055812,315.5056053,315.5056053,315.9915983,c,1,0.4816147,None,participant,1,2024-10-11_11h21.46.104,D6_exp6_MotorSequenceLearning,2024.1.5,None,2024-10-11 11h22.06.475114 +0530
-150,z,29,3,119,3,,,,,316.0055061,,315.9935117,316.0055061,317.0056142,317.0056142,317.0056142,317.0056142,317.0056142,318.0058434,318.0058434,318.4242902,z,1,0.4065259,None,participant,1,2024-10-11_11h21.46.104,D6_exp6_MotorSequenceLearning,2024.1.5,None,2024-10-11 11h22.06.475114 +0530
-50,x,30,0,120,0,,,,,318.4394413,,318.4273784,318.4394413,319.4395381,319.4395381,319.4395381,319.4395381,319.4395381,320.4394916,320.4394916,320.8900659,x,1,0.4433403,None,participant,1,2024-10-11_11h21.46.104,D6_exp6_MotorSequenceLearning,2024.1.5,None,2024-10-11 11h22.06.475114 +0530
150,v,30,1,121,1,,,,,320.9058845,,320.8913788,320.9058845,321.9062674,321.9062674,321.9062674,321.9062674,321.9062674,322.9064614,322.9064614,323.7253554,v,1,0.8070131,None,participant,1,2024-10-11_11h21.46.104,D6_exp6_MotorSequenceLearning,2024.1.5,None,2024-10-11 11h22.06.475114 +0530
50,c,30,2,122,2,,,,,323.7396942,,323.7270614,323.7396942,324.739735,324.739735,324.739735,324.739735,324.739735,325.740225,325.740225,326.2077269,c,1,0.4635382,None,participant,1,2024-10-11_11h21.46.104,D6_exp6_MotorSequenceLearning,2024.1.5,None,2024-10-11 11h22.06.475114 +0530
-150,z,30,3,123,3,,,,,326.2230596,,326.208952,326.2230596,327.22396,327.22396,327.22396,327.22396,327.22396,328.2238938,328.2238938,328.6250013,z,1,0.389755,None,participant,1,2024-10-11_11h21.46.104,D6_exp6_MotorSequenceLearning,2024.1.5,None,2024-10-11 11h22.06.475114 +0530
-50,x,31,0,124,0,,,,,328.6401082,,328.6272088,328.6401082,329.6401759,329.6401759,329.6401759,329.6401759,329.6401759,330.6402356,330.6402356,331.0262639,x,1,0.3715816,None,participant,1,2024-10-11_11h21.46.104,D6_exp6_MotorSequenceLearning,2024.1.5,None,2024-10-11 11h22.06.475114 +0530
150,v,31,1,125,1,,,,,331.0406923,,331.029278,331.0406923,332.0404987,332.0404987,332.0404987,332.0404987,332.0404987,333.0404231,333.0404231,333.6928242,v,1,0.648505,None,participant,1,2024-10-11_11h21.46.104,D6_exp6_MotorSequenceLearning,2024.1.5,None,2024-10-11 11h22.06.475114 +0530
50,c,31,2,126,2,,,,,333.7075755,,333.6943066,333.7075755,334.7073866,334.7073866,334.7073866,334.7073866,334.7073866,335.7074222,335.7074222,336.2435523,c,1,0.5309065,None,participant,1,2024-10-11_11h21.46.104,D6_exp6_MotorSequenceLearning,2024.1.5,None,2024-10-11 11h22.06.475114 +0530
-150,z,31,3,127,3,,,,,336.2577045,,336.2457258,336.2577045,337.257712,337.257712,337.257712,337.257712,337.257712,338.2578203,338.2578203,338.8431983,z,1,0.5707791,None,participant,1,2024-10-11_11h21.46.104,D6_exp6_MotorSequenceLearning,2024.1.5,None,2024-10-11 11h22.06.475114 +0530
-50,x,32,0,128,0,,,,,338.8577936,,338.845178,338.8577936,339.8580432,339.8580432,339.8580432,339.8580432,339.8580432,340.8579951,340.8579951,341.2924609,x,1,0.4244036,None,participant,1,2024-10-11_11h21.46.104,D6_exp6_MotorSequenceLearning,2024.1.5,None,2024-10-11 11h22.06.475114 +0530
150,v,32,1,129,1,,,,,341.3086685,,341.2938181,341.3086685,342.3085641,342.3085641,342.3085641,342.3085641,342.3085641,343.3083159,343.3083159,343.7767088,v,1,0.463653,None,participant,1,2024-10-11_11h21.46.104,D6_exp6_MotorSequenceLearning,2024.1.5,None,2024-10-11 11h22.06.475114 +0530
50,c,32,2,130,2,,,,,343.7927144,,343.7786283,343.7927144,344.7917051,344.7917051,344.7917051,344.7917051,344.7917051,345.7918948,345.7918948,346.3439367,c,1,0.5454685,None,participant,1,2024-10-11_11h21.46.104,D6_exp6_MotorSequenceLearning,2024.1.5,None,2024-10-11 11h22.06.475114 +0530
-150,z,32,3,131,3,,,,,346.3587088,,346.3454669,346.3587088,347.3590742,347.3590742,347.3590742,347.3590742,347.3590742,348.358731,348.358731,348.9113011,z,1,0.5384615,None,participant,1,2024-10-11_11h21.46.104,D6_exp6_MotorSequenceLearning,2024.1.5,None,2024-10-11 11h22.06.475114 +0530
-50,x,33,0,132,0,,,,,348.9254853,,348.913129,348.9254853,349.9256268,349.9256268,349.9256268,349.9256268,349.9256268,350.9258117,350.9258117,351.2962666,x,1,0.3657632,None,participant,1,2024-10-11_11h21.46.104,D6_exp6_MotorSequenceLearning,2024.1.5,None,2024-10-11 11h22.06.475114 +0530
150,v,33,1,133,1,,,,,351.3092792,,351.2988517,351.3092792,352.3092458,352.3092458,352.3092458,352.3092458,352.3092458,353.3092765,353.3092765,353.960531,v,1,0.6385109,None,participant,1,2024-10-11_11h21.46.104,D6_exp6_MotorSequenceLearning,2024.1.5,None,2024-10-11 11h22.06.475114 +0530
50,c,33,2,134,2,,,,,353.9760943,,353.9626668,353.9760943,354.9760754,354.9760754,354.9760754,354.9760754,354.9760754,355.9761769,355.9761769,356.6289585,c,1,0.6366556,None,participant,1,2024-10-11_11h21.46.104,D6_exp6_MotorSequenceLearning,2024.1.5,None,2024-10-11 11h22.06.475114 +0530
-150,z,33,3,135,3,,,,,356.6435169,,356.6320201,356.6435169,357.643061,357.643061,357.643061,357.643061,357.643061,358.6433398,358.6433398,359.5292973,z,1,0.881556,None,participant,1,2024-10-11_11h21.46.104,D6_exp6_MotorSequenceLearning,2024.1.5,None,2024-10-11 11h22.06.475114 +0530
-50,x,34,0,136,0,,,,,359.5434117,,359.5307227,359.5434117,360.54449,360.54449,360.54449,360.54449,360.54449,361.5434621,361.5434621,361.9451595,x,1,0.3964582,None,participant,1,2024-10-11_11h21.46.104,D6_exp6_MotorSequenceLearning,2024.1.5,None,2024-10-11 11h22.06.475114 +0530
150,v,34,1,137,1,,,,,361.9601327,,361.9470436,361.9601327,362.9607303,362.9607303,362.9607303,362.9607303,362.9607303,363.9603586,363.9603586,364.4620138,v,1,0.4895414,None,participant,1,2024-10-11_11h21.46.104,D6_exp6_MotorSequenceLearning,2024.1.5,None,2024-10-11 11h22.06.475114 +0530
50,c,34,2,138,2,,,,,364.4772982,,364.4638043,364.4772982,365.4772019,365.4772019,365.4772019,365.4772019,365.4772019,366.4772983,366.4772983,366.8793869,c,1,0.3859784,None,participant,1,2024-10-11_11h21.46.104,D6_exp6_MotorSequenceLearning,2024.1.5,None,2024-10-11 11h22.06.475114 +0530
-150,z,34,3,139,3,,,,,366.8941976,,366.8817216,366.8941976,367.8941246,367.8941246,367.8941246,367.8941246,367.8941246,368.8943925,368.8943925,369.7464792,z,1,0.8351094,None,participant,1,2024-10-11_11h21.46.104,D6_exp6_MotorSequenceLearning,2024.1.5,None,2024-10-11 11h22.06.475114 +0530
-50,x,35,0,140,0,,,,,369.7610087,,369.7488428,369.7610087,370.7611307,370.7611307,370.7611307,370.7611307,370.7611307,371.7613317,371.7613317,372.1626226,x,1,0.3875438,None,participant,1,2024-10-11_11h21.46.104,D6_exp6_MotorSequenceLearning,2024.1.5,None,2024-10-11 11h22.06.475114 +0530
150,v,35,1,141,1,,,,,372.1780299,,372.1646152,372.1780299,373.1781658,373.1781658,373.1781658,373.1781658,373.1781658,374.178397,374.178397,374.730081,v,1,0.5469533,None,participant,1,2024-10-11_11h21.46.104,D6_exp6_MotorSequenceLearning,2024.1.5,None,2024-10-11 11h22.06.475114 +0530
50,c,35,2,142,2,,,,,374.7526573,,374.7330236,374.7526573,375.745087,375.745087,375.745087,375.745087,375.7617641,376.7451609,376.7451609,377.1633286,c,1,0.4091042,None,participant,1,2024-10-11_11h21.46.104,D6_exp6_MotorSequenceLearning,2024.1.5,None,2024-10-11 11h22.06.475114 +0530
-150,z,35,3,143,3,,,,,377.178656,,377.1648757,377.178656,378.178632,378.178632,378.178632,378.178632,378.178632,379.1787925,379.1787925,379.8305092,z,1,0.6411667,None,participant,1,2024-10-11_11h21.46.104,D6_exp6_MotorSequenceLearning,2024.1.5,None,2024-10-11 11h22.06.475114 +0530
-50,x,36,0,144,0,,,,,379.8453782,,379.8324351,379.8453782,380.8454416,380.8454416,380.8454416,380.8454416,380.8454416,381.8455399,381.8455399,382.2983674,x,1,0.4444705,None,participant,1,2024-10-11_11h21.46.104,D6_exp6_MotorSequenceLearning,2024.1.5,None,2024-10-11 11h22.06.475114 +0530
150,v,36,1,145,1,,,,,382.3130467,,382.3009625,382.3130467,383.3127939,383.3127939,383.3127939,383.3127939,383.3127939,384.3124788,384.3124788,384.6807844,v,1,0.3620645,None,participant,1,2024-10-11_11h21.46.104,D6_exp6_MotorSequenceLearning,2024.1.5,None,2024-10-11 11h22.06.475114 +0530
50,c,36,2,146,2,,,,,384.6958136,,384.6823637,384.6958136,385.6959027,385.6959027,385.6959027,385.6959027,385.6959027,386.6966462,386.6966462,387.4313181,c,1,0.7180847,None,participant,1,2024-10-11_11h21.46.104,D6_exp6_MotorSequenceLearning,2024.1.5,None,2024-10-11 11h22.06.475114 +0530
-150,z,36,3,147,3,,,,,387.4462938,,387.4332542,387.4462938,388.446566,388.446566,388.446566,388.446566,388.446566,389.4464259,389.4464259,390.1652048,z,1,0.7160891,None,participant,1,2024-10-11_11h21.46.104,D6_exp6_MotorSequenceLearning,2024.1.5,None,2024-10-11 11h22.06.475114 +0530
-50,x,37,0,148,0,,,,,390.1798326,,390.1671362,390.1798326,391.1803579,391.1803579,391.1803579,391.1803579,391.1803579,392.1803868,392.1803868,392.8989354,x,1,0.7119636,None,participant,1,2024-10-11_11h21.46.104,D6_exp6_MotorSequenceLearning,2024.1.5,None,2024-10-11 11h22.06.475114 +0530
150,v,37,1,149,1,,,,,392.9135594,,392.9010362,392.9135594,393.9135399,393.9135399,393.9135399,393.9135399,393.9135399,394.9135721,394.9135721,395.5327313,v,1,0.6044324,None,participant,1,2024-10-11_11h21.46.104,D6_exp6_MotorSequenceLearning,2024.1.5,None,2024-10-11 11h22.06.475114 +0530
50,c,37,2,150,2,,,,,395.5470877,,395.534611,395.5470877,396.5470768,396.5470768,396.5470768,396.5470768,396.5470768,397.547342,397.547342,398.0325113,c,1,0.4704576,None,participant,1,2024-10-11_11h21.46.104,D6_exp6_MotorSequenceLearning,2024.1.5,None,2024-10-11 11h22.06.475114 +0530
-150,z,37,3,151,3,,,,,398.047685,,398.0337596,398.047685,399.0474438,399.0474438,399.0474438,399.0474438,399.0474438,400.0474734,400.0474734,400.7490592,z,1,0.6915214,None,participant,1,2024-10-11_11h21.46.104,D6_exp6_MotorSequenceLearning,2024.1.5,None,2024-10-11 11h22.06.475114 +0530
-50,x,38,0,152,0,,,,,400.764365,,400.7507309,400.764365,401.7648395,401.7648395,401.7648395,401.7648395,401.7648395,402.764611,402.764611,403.2164774,x,1,0.4440847,None,participant,1,2024-10-11_11h21.46.104,D6_exp6_MotorSequenceLearning,2024.1.5,None,2024-10-11 11h22.06.475114 +0530
150,v,38,1,153,1,,,,,403.2311824,,403.2183146,403.2311824,404.2313561,404.2313561,404.2313561,404.2313561,404.2313561,405.2313833,405.2313833,405.6993749,v,1,0.4526091,None,participant,1,2024-10-11_11h21.46.104,D6_exp6_MotorSequenceLearning,2024.1.5,None,2024-10-11 11h22.06.475114 +0530
50,c,38,2,154,2,,,,,405.7149284,,405.7017523,405.7149284,406.7149839,406.7149839,406.7149839,406.7149839,406.7149839,407.7148881,407.7148881,408.2998012,c,1,0.5795053,None,participant,1,2024-10-11_11h21.46.104,D6_exp6_MotorSequenceLearning,2024.1.5,None,2024-10-11 11h22.06.475114 +0530
-150,z,38,3,155,3,,,,,408.3151169,,408.301982,408.3151169,409.3150622,409.3150622,409.3150622,409.3150622,409.3150622,410.3154141,410.3154141,410.7175419,z,1,0.3881608,None,participant,1,2024-10-11_11h21.46.104,D6_exp6_MotorSequenceLearning,2024.1.5,None,2024-10-11 11h22.06.475114 +0530
-50,x,39,0,156,0,,,,,410.7319692,,410.7193618,410.7319692,411.7320261,411.7320261,411.7320261,411.7320261,411.7320261,412.7326762,412.7326762,413.2002156,x,1,0.4515793,None,participant,1,2024-10-11_11h21.46.104,D6_exp6_MotorSequenceLearning,2024.1.5,None,2024-10-11 11h22.06.475114 +0530
150,v,39,1,157,1,,,,,413.2155853,,413.2021083,413.2155853,414.2156882,414.2156882,414.2156882,414.2156882,414.2156882,415.215804,415.215804,415.6846558,v,1,0.458248,None,participant,1,2024-10-11_11h21.46.104,D6_exp6_MotorSequenceLearning,2024.1.5,None,2024-10-11 11h22.06.475114 +0530
50,c,39,2,158,2,,,,,415.6993208,,415.6874685,415.6993208,416.6991533,416.6991533,416.6991533,416.6991533,416.6991533,417.6995001,417.6995001,418.2341279,c,1,0.5245183,None,participant,1,2024-10-11_11h21.46.104,D6_exp6_MotorSequenceLearning,2024.1.5,None,2024-10-11 11h22.06.475114 +0530
-150,z,39,3,159,3,,,,,418.2495566,,418.235771,418.2495566,419.2494656,419.2494656,419.2494656,419.2494656,419.2494656,420.2496326,420.2496326,420.8347127,z,1,0.5796737,None,participant,1,2024-10-11_11h21.46.104,D6_exp6_MotorSequenceLearning,2024.1.5,None,2024-10-11 11h22.06.475114 +0530
-50,x,40,0,160,0,,,,,420.8499916,,420.8361623,420.8499916,421.8497668,421.8497668,421.8497668,421.8497668,421.8497668,422.8501976,422.8501976,423.3678574,x,1,0.5100744,None,participant,1,2024-10-11_11h21.46.104,D6_exp6_MotorSequenceLearning,2024.1.5,None,2024-10-11 11h22.06.475114 +0530
150,v,40,1,161,1,,,,,423.3837772,,423.3703179,423.3837772,424.3833133,424.3833133,424.3833133,424.3833133,424.3833133,425.3835568,425.3835568,425.76896,v,1,0.3755825,None,participant,1,2024-10-11_11h21.46.104,D6_exp6_MotorSequenceLearning,2024.1.5,None,2024-10-11 11h22.06.475114 +0530
50,c,40,2,162,2,,,,,425.7836766,,425.771572,425.7836766,426.7836385,426.7836385,426.7836385,426.7836385,426.7836385,427.783728,427.783728,428.102351,c,1,0.3104808,None,participant,1,2024-10-11_11h21.46.104,D6_exp6_MotorSequenceLearning,2024.1.5,None,2024-10-11 11h22.06.475114 +0530
-150,z,40,3,163,3,,,,,428.1170941,,428.1037639,428.1170941,429.1172514,429.1172514,429.1172514,429.1172514,429.1172514,430.117197,430.117197,430.4355879,z,1,0.3062491,None,participant,1,2024-10-11_11h21.46.104,D6_exp6_MotorSequenceLearning,2024.1.5,None,2024-10-11 11h22.06.475114 +0530
-50,x,41,0,164,0,,,,,430.452427,,430.4375403,430.452427,431.4511768,431.4511768,431.4511768,431.4511768,431.4675285,432.4507674,432.4507674,432.8355665,x,1,0.377249,None,participant,1,2024-10-11_11h21.46.104,D6_exp6_MotorSequenceLearning,2024.1.5,None,2024-10-11 11h22.06.475114 +0530
150,v,41,1,165,1,,,,,432.8509716,,432.8374154,432.8509716,433.8513092,433.8513092,433.8513092,433.8513092,433.8513092,434.8510164,434.8510164,435.1374263,v,1,0.2825531,None,participant,1,2024-10-11_11h21.46.104,D6_exp6_MotorSequenceLearning,2024.1.5,None,2024-10-11 11h22.06.475114 +0530
50,c,41,2,166,2,,,,,435.1514672,,435.139614,435.1514672,436.1511839,436.1511839,436.1511839,436.1511839,436.1511839,437.1513593,437.1513593,437.5699131,c,1,0.4101034,None,participant,1,2024-10-11_11h21.46.104,D6_exp6_MotorSequenceLearning,2024.1.5,None,2024-10-11 11h22.06.475114 +0530
-150,z,41,3,167,3,,,,,437.5847934,,437.5719108,437.5847934,438.5848724,438.5848724,438.5848724,438.5848724,438.5848724,439.5850408,439.5850408,439.920263,z,1,0.3316671,None,participant,1,2024-10-11_11h21.46.104,D6_exp6_MotorSequenceLearning,2024.1.5,None,2024-10-11 11h22.06.475114 +0530
-50,x,42,0,168,0,,,,,439.9349182,,439.9220516,439.9349182,440.9352743,440.9352743,440.9352743,440.9352743,440.9352743,441.9351299,441.9351299,442.7534959,x,1,0.8069878,None,participant,1,2024-10-11_11h21.46.104,D6_exp6_MotorSequenceLearning,2024.1.5,None,2024-10-11 11h22.06.475114 +0530
150,v,42,1,169,1,,,,,442.7685611,,442.7551797,442.7685611,443.7689352,443.7689352,443.7689352,443.7689352,443.7689352,444.7690788,444.7690788,445.2543375,v,1,0.4728648,None,participant,1,2024-10-11_11h21.46.104,D6_exp6_MotorSequenceLearning,2024.1.5,None,2024-10-11 11h22.06.475114 +0530
50,c,42,2,170,2,,,,,445.2688688,,445.2556051,445.2688688,446.269031,446.269031,446.269031,446.269031,446.269031,447.2689579,447.2689579,447.6704607,c,1,0.3985283,None,participant,1,2024-10-11_11h21.46.104,D6_exp6_MotorSequenceLearning,2024.1.5,None,2024-10-11 11h22.06.475114 +0530
-150,z,42,3,171,3,,,,,447.685723,,447.6719901,447.685723,448.6865456,448.6865456,448.6865456,448.6865456,448.6865456,449.6863515,449.6863515,450.1542635,z,1,0.4653899,None,participant,1,2024-10-11_11h21.46.104,D6_exp6_MotorSequenceLearning,2024.1.5,None,2024-10-11 11h22.06.475114 +0530
-50,x,43,0,172,0,,,,,450.169424,,450.1563849,450.169424,451.1694395,451.1694395,451.1694395,451.1694395,451.1694395,452.1697148,452.1697148,452.6886132,x,1,0.5072571,None,participant,1,2024-10-11_11h21.46.104,D6_exp6_MotorSequenceLearning,2024.1.5,None,2024-10-11 11h22.06.475114 +0530
150,v,43,1,173,1,,,,,452.7031184,,452.6905088,452.7031184,453.7030724,453.7030724,453.7030724,453.7030724,453.7030724,454.7034803,454.7034803,455.4051066,v,1,0.6898202,None,participant,1,2024-10-11_11h21.46.104,D6_exp6_MotorSequenceLearning,2024.1.5,None,2024-10-11 11h22.06.475114 +0530
50,c,43,2,174,2,,,,,455.4200106,,455.4067217,455.4200106,456.4202995,456.4202995,456.4202995,456.4202995,456.4202995,457.4200975,457.4200975,457.8215617,c,1,0.3877072,None,participant,1,2024-10-11_11h21.46.104,D6_exp6_MotorSequenceLearning,2024.1.5,None,2024-10-11 11h22.06.475114 +0530
-150,z,43,3,175,3,,,,,457.8375599,,457.8245578,457.8375599,458.8373324,458.8373324,458.8373324,458.8373324,458.8373324,459.8372454,459.8372454,460.221882,z,1,0.3748234,None,participant,1,2024-10-11_11h21.46.104,D6_exp6_MotorSequenceLearning,2024.1.5,None,2024-10-11 11h22.06.475114 +0530
-50,x,44,0,176,0,,,,,460.2372515,,460.223821,460.2372515,461.2385511,461.2385511,461.2385511,461.2385511,461.2385511,462.2375496,462.2375496,462.8392747,x,1,0.5956772,None,participant,1,2024-10-11_11h21.46.104,D6_exp6_MotorSequenceLearning,2024.1.5,None,2024-10-11 11h22.06.475114 +0530
150,v,44,1,177,1,,,,,462.8540598,,462.8408595,462.8540598,463.8542165,463.8542165,463.8542165,463.8542165,463.8542165,464.8543975,464.8543975,465.4399433,v,1,0.5791383,None,participant,1,2024-10-11_11h21.46.104,D6_exp6_MotorSequenceLearning,2024.1.5,None,2024-10-11 11h22.06.475114 +0530
50,c,44,2,178,2,,,,,465.4543445,,465.4415644,465.4543445,466.4544088,466.4544088,466.4544088,466.4544088,466.4544088,467.4545853,467.4545853,468.0061307,c,1,0.5444043,None,participant,1,2024-10-11_11h21.46.104,D6_exp6_MotorSequenceLearning,2024.1.5,None,2024-10-11 11h22.06.475114 +0530
-150,z,44,3,179,3,,,,,468.0212207,,468.0073004,468.0212207,469.0221336,469.0221336,469.0221336,469.0221336,469.0221336,470.0214044,470.0214044,470.4894019,z,1,0.4621491,None,participant,1,2024-10-11_11h21.46.104,D6_exp6_MotorSequenceLearning,2024.1.5,None,2024-10-11 11h22.06.475114 +0530
-50,x,45,0,180,0,,,,,470.5049488,,470.4918642,470.5049488,471.5049318,471.5049318,471.5049318,471.5049318,471.5049318,472.505028,472.505028,473.0066045,x,1,0.4886474,None,participant,1,2024-10-11_11h21.46.104,D6_exp6_MotorSequenceLearning,2024.1.5,None,2024-10-11 11h22.06.475114 +0530
150,v,45,1,181,1,,,,,473.0227498,,473.0092395,473.0227498,474.0223852,474.0223852,474.0223852,474.0223852,474.0223852,475.0219838,475.0219838,475.4243686,v,1,0.3854427,None,participant,1,2024-10-11_11h21.46.104,D6_exp6_MotorSequenceLearning,2024.1.5,None,2024-10-11 11h22.06.475114 +0530
50,c,45,2,182,2,,,,,475.4387282,,475.4260702,475.4387282,476.4388144,476.4388144,476.4388144,476.4388144,476.4388144,477.4389601,477.4389601,478.925285,c,1,1.4734132,None,participant,1,2024-10-11_11h21.46.104,D6_exp6_MotorSequenceLearning,2024.1.5,None,2024-10-11 11h22.06.475114 +0530
-150,z,45,3,183,3,,,,,478.9391285,,478.9272303,478.9391285,479.9392472,479.9392472,479.9392472,479.9392472,479.9392472,480.9392268,480.9392268,481.5740639,z,1,0.6230347,None,participant,1,2024-10-11_11h21.46.104,D6_exp6_MotorSequenceLearning,2024.1.5,None,2024-10-11 11h22.06.475114 +0530
-50,x,46,0,184,0,,,,,481.5895417,,481.575955,481.5895417,482.5894117,482.5894117,482.5894117,482.5894117,482.5894117,483.589537,483.589537,484.0084835,x,1,0.4168841,None,participant,1,2024-10-11_11h21.46.104,D6_exp6_MotorSequenceLearning,2024.1.5,None,2024-10-11 11h22.06.475114 +0530
150,v,46,1,185,1,,,,,484.0228065,,484.0103512,484.0228065,485.0229794,485.0229794,485.0229794,485.0229794,485.0229794,486.0231738,486.0231738,486.3254805,v,1,0.2979557,None,participant,1,2024-10-11_11h21.46.104,D6_exp6_MotorSequenceLearning,2024.1.5,None,2024-10-11 11h22.06.475114 +0530
50,c,46,2,186,2,,,,,486.3398302,,486.3274489,486.3398302,487.3398173,487.3398173,487.3398173,487.3398173,487.3398173,488.340149,488.340149,488.7086442,c,1,0.3658129,None,participant,1,2024-10-11_11h21.46.104,D6_exp6_MotorSequenceLearning,2024.1.5,None,2024-10-11 11h22.06.475114 +0530
-150,z,46,3,187,3,,,,,488.7236455,,488.7098432,488.7236455,489.7234826,489.7234826,489.7234826,489.7234826,489.7234826,490.7235122,490.7235122,491.1086418,z,1,0.3763949,None,participant,1,2024-10-11_11h21.46.104,D6_exp6_MotorSequenceLearning,2024.1.5,None,2024-10-11 11h22.06.475114 +0530
-50,x,47,0,188,0,,,,,491.1235855,,491.1100163,491.1235855,492.123653,492.123653,492.123653,492.123653,492.123653,493.1242423,493.1242423,493.8435482,x,1,0.7166759,None,participant,1,2024-10-11_11h21.46.104,D6_exp6_MotorSequenceLearning,2024.1.5,None,2024-10-11 11h22.06.475114 +0530
150,v,47,1,189,1,,,,,493.8574382,,493.8454861,493.8574382,494.8573724,494.8573724,494.8573724,494.8573724,494.8573724,495.8573399,495.8573399,496.3433668,v,1,0.4734628,None,participant,1,2024-10-11_11h21.46.104,D6_exp6_MotorSequenceLearning,2024.1.5,None,2024-10-11 11h22.06.475114 +0530
50,c,47,2,190,2,,,,,496.357536,,496.3453037,496.357536,497.3575576,497.3575576,497.3575576,497.3575576,497.3575576,498.3578573,498.3578573,498.7276826,c,1,0.3571156,None,participant,1,2024-10-11_11h21.46.104,D6_exp6_MotorSequenceLearning,2024.1.5,None,2024-10-11 11h22.06.475114 +0530
-150,z,47,3,191,3,,,,,498.7414954,,498.7293539,498.7414954,499.7411131,499.7411131,499.7411131,499.7411131,499.7411131,500.7413391,500.7413391,501.1268378,z,1,0.3785727,None,participant,1,2024-10-11_11h21.46.104,D6_exp6_MotorSequenceLearning,2024.1.5,None,2024-10-11 11h22.06.475114 +0530
-50,x,48,0,192,0,,,,,501.1412589,,501.12872,501.1412589,502.1414024,502.1414024,502.1414024,502.1414024,502.1414024,503.1417738,503.1417738,503.4770769,x,1,0.3248185,None,participant,1,2024-10-11_11h21.46.104,D6_exp6_MotorSequenceLearning,2024.1.5,None,2024-10-11 11h22.06.475114 +0530
150,v,48,1,193,1,,,,,503.4915959,,503.4792888,503.4915959,504.4917502,504.4917502,504.4917502,504.4917502,504.4917502,505.4917854,505.4917854,506.1606634,v,1,0.660735,None,participant,1,2024-10-11_11h21.46.104,D6_exp6_MotorSequenceLearning,2024.1.5,None,2024-10-11 11h22.06.475114 +0530
50,c,48,2,194,2,,,,,506.1751534,,506.162326,506.1751534,507.1753174,507.1753174,507.1753174,507.1753174,507.1753174,508.1758569,508.1758569,508.5943923,c,1,0.4164334,None,participant,1,2024-10-11_11h21.46.104,D6_exp6_MotorSequenceLearning,2024.1.5,None,2024-10-11 11h22.06.475114 +0530
-150,z,48,3,195,3,,,,,508.6086823,,508.5965921,508.6086823,509.6087671,509.6087671,509.6087671,509.6087671,509.6087671,510.6119457,510.6119457,511.0777428,z,1,0.4547199,None,participant,1,2024-10-11_11h21.46.104,D6_exp6_MotorSequenceLearning,2024.1.5,None,2024-10-11 11h22.06.475114 +0530
-50,x,49,0,196,0,,,,,511.0923733,,511.0793648,511.0923733,512.0925216,512.0925216,512.0925216,512.0925216,512.0925216,513.0925397,513.0925397,513.427247,x,1,0.3189448,None,participant,1,2024-10-11_11h21.46.104,D6_exp6_MotorSequenceLearning,2024.1.5,None,2024-10-11 11h22.06.475114 +0530
150,v,49,1,197,1,,,,,513.4431063,,513.4301031,513.4431063,514.4428416,514.4428416,514.4428416,514.4428416,514.4428416,515.4428667,515.4428667,515.8781737,v,1,0.4182008,None,participant,1,2024-10-11_11h21.46.104,D6_exp6_MotorSequenceLearning,2024.1.5,None,2024-10-11 11h22.06.475114 +0530
50,c,49,2,198,2,,,,,515.8927932,,515.8802292,515.8927932,516.8929158,516.8929158,516.8929158,516.8929158,516.8929158,517.8930306,517.8930306,518.3118957,c,1,0.4145872,None,participant,1,2024-10-11_11h21.46.104,D6_exp6_MotorSequenceLearning,2024.1.5,None,2024-10-11 11h22.06.475114 +0530
-150,z,49,3,199,3,,,,,518.3264335,,518.3147924,518.3264335,519.3264356,519.3264356,519.3264356,519.3264356,519.3264356,520.3267316,520.3267316,520.7281378,z,1,0.388629,None,participant,1,2024-10-11_11h21.46.104,D6_exp6_MotorSequenceLearning,2024.1.5,None,2024-10-11 11h22.06.475114 +0530
150,v,,,,,0,0,0,1,520.7829056,,520.7776728,520.7829056,521.7434196,521.7434196,521.7434196,521.7434196,521.7933419,522.7435827,522.7435827,523.2783821,v,1,0.527507,None,participant,1,2024-10-11_11h21.46.104,D6_exp6_MotorSequenceLearning,2024.1.5,None,2024-10-11 11h22.06.475114 +0530
150,v,,,,,0,1,1,1,523.2935124,,523.2802813,523.2935124,524.2937474,524.2937474,524.2937474,524.2937474,524.2937474,525.2941322,525.2941322,526.0124522,v,1,0.7080471,None,participant,1,2024-10-11_11h21.46.104,D6_exp6_MotorSequenceLearning,2024.1.5,None,2024-10-11 11h22.06.475114 +0530
150,v,,,,,0,2,2,1,526.0272424,,526.0159527,526.0272424,527.0273119,527.0273119,527.0273119,527.0273119,527.0273119,528.0277356,528.0277356,528.4463471,v,1,0.4087635,None,participant,1,2024-10-11_11h21.46.104,D6_exp6_MotorSequenceLearning,2024.1.5,None,2024-10-11 11h22.06.475114 +0530
-50,x,,,,,0,3,3,0,528.4613031,,528.4487165,528.4613031,529.4609813,529.4609813,529.4609813,529.4609813,529.4609813,530.4609499,530.4609499,531.3125281,x,1,0.8482456,None,participant,1,2024-10-11_11h21.46.104,D6_exp6_MotorSequenceLearning,2024.1.5,None,2024-10-11 11h22.06.475114 +0530
50,c,,,,,1,0,4,2,531.3279673,,531.315494,531.3279673,532.3280461,532.3280461,532.3280461,532.3280461,532.3280461,533.3279867,533.3279867,533.980647,c,1,0.6505705,None,participant,1,2024-10-11_11h21.46.104,D6_exp6_MotorSequenceLearning,2024.1.5,None,2024-10-11 11h22.06.475114 +0530
50,c,,,,,1,1,5,2,533.9949044,,533.9830077,533.9949044,534.9950018,534.9950018,534.9950018,534.9950018,534.9950018,535.9949276,535.9949276,536.7807413,c,1,0.7705577,None,participant,1,2024-10-11_11h21.46.104,D6_exp6_MotorSequenceLearning,2024.1.5,None,2024-10-11 11h22.06.475114 +0530
-150,z,,,,,1,2,6,3,536.7949676,,536.7827207,536.7949676,537.7950372,537.7950372,537.7950372,537.7950372,537.7950372,538.7955321,538.7955321,539.3641279,z,1,0.5556607,None,participant,1,2024-10-11_11h21.46.104,D6_exp6_MotorSequenceLearning,2024.1.5,None,2024-10-11 11h22.06.475114 +0530
50,c,,,,,1,3,7,2,539.3786078,,539.366,539.3786078,540.3787476,540.3787476,540.3787476,540.3787476,540.3787476,541.3788636,541.3788636,542.114755,c,1,0.7275174,None,participant,1,2024-10-11_11h21.46.104,D6_exp6_MotorSequenceLearning,2024.1.5,None,2024-10-11 11h22.06.475114 +0530
-150,z,,,,,2,0,8,3,542.1292843,,542.1168868,542.1292843,543.1290132,543.1290132,543.1290132,543.1290132,543.1290132,544.1290065,544.1290065,544.5804173,z,1,0.4469723,None,participant,1,2024-10-11_11h21.46.104,D6_exp6_MotorSequenceLearning,2024.1.5,None,2024-10-11 11h22.06.475114 +0530
-150,z,,,,,2,1,9,3,544.5959218,,544.5824109,544.5959218,545.5959778,545.5959778,545.5959778,545.5959778,545.5959778,546.5960517,546.5960517,547.1486683,z,1,0.5461523,None,participant,1,2024-10-11_11h21.46.104,D6_exp6_MotorSequenceLearning,2024.1.5,None,2024-10-11 11h22.06.475114 +0530
-50,x,,,,,2,2,10,0,547.1628015,,547.15066,547.1628015,548.1630046,548.1630046,548.1630046,548.1630046,548.1630046,549.1629281,549.1629281,549.9645835,x,1,0.7900518,None,participant,1,2024-10-11_11h21.46.104,D6_exp6_MotorSequenceLearning,2024.1.5,None,2024-10-11 11h22.06.475114 +0530
-150,z,,,,,2,3,11,3,549.9798021,,549.9665198,549.9798021,550.9797797,550.9797797,550.9797797,550.9797797,550.9797797,551.9799184,551.9799184,552.8150419,z,1,0.829373,None,participant,1,2024-10-11_11h21.46.104,D6_exp6_MotorSequenceLearning,2024.1.5,None,2024-10-11 11h22.06.475114 +0530
150,v,,,,,3,0,12,1,552.8303234,,552.8178988,552.8303234,553.8300403,553.8300403,553.8300403,553.8300403,553.8300403,554.8303087,554.8303087,555.4821376,v,1,0.644296,None,participant,1,2024-10-11_11h21.46.104,D6_exp6_MotorSequenceLearning,2024.1.5,None,2024-10-11 11h22.06.475114 +0530
-50,x,,,,,3,1,13,0,555.4970265,,555.4846657,555.4970265,556.4973121,556.4973121,556.4973121,556.4973121,556.4973121,557.4971187,557.4971187,558.298459,x,1,0.7937442,None,participant,1,2024-10-11_11h21.46.104,D6_exp6_MotorSequenceLearning,2024.1.5,None,2024-10-11 11h22.06.475114 +0530
150,v,,,,,3,2,14,1,558.3140382,,558.3000883,558.3140382,559.3142467,559.3142467,559.3142467,559.3142467,559.3142467,560.3145822,560.3145822,560.9163316,v,1,0.5970444,None,participant,1,2024-10-11_11h21.46.104,D6_exp6_MotorSequenceLearning,2024.1.5,None,2024-10-11 11h22.06.475114 +0530
150,v,,,,,3,3,15,1,560.9309415,,560.9180806,560.9309415,561.9312197,561.9312197,561.9312197,561.9312197,561.9312197,562.9310302,562.9310302,563.5165259,v,1,0.5717547,None,participant,1,2024-10-11_11h21.46.104,D6_exp6_MotorSequenceLearning,2024.1.5,None,2024-10-11 11h22.06.475114 +0530
-50,x,,,,,4,0,16,0,563.5315686,,563.5183276,563.5315686,564.5312325,564.5312325,564.5312325,564.5312325,564.5312325,565.5312911,565.5312911,566.3497141,x,1,0.8025758,None,participant,1,2024-10-11_11h21.46.104,D6_exp6_MotorSequenceLearning,2024.1.5,None,2024-10-11 11h22.06.475114 +0530
150,v,,,,,4,1,17,1,566.3647889,,566.3511136,566.3647889,567.365078,567.365078,567.365078,567.365078,567.365078,568.3649375,568.3649375,568.983563,v,1,0.6091779,None,participant,1,2024-10-11_11h21.46.104,D6_exp6_MotorSequenceLearning,2024.1.5,None,2024-10-11 11h22.06.475114 +0530
150,v,,,,,4,2,18,1,568.9984375,,568.9856056,568.9984375,569.9985135,569.9985135,569.9985135,569.9985135,569.9985135,570.999102,570.999102,571.5338626,v,1,0.5301514,None,participant,1,2024-10-11_11h21.46.104,D6_exp6_MotorSequenceLearning,2024.1.5,None,2024-10-11 11h22.06.475114 +0530
150,v,,,,,4,3,19,1,571.5485495,,571.5355246,571.5485495,572.5490593,572.5490593,572.5490593,572.5490593,572.5490593,573.5487621,573.5487621,574.1007494,v,1,0.5463596,None,participant,1,2024-10-11_11h21.46.104,D6_exp6_MotorSequenceLearning,2024.1.5,None,2024-10-11 11h22.06.475114 +0530
-150,z,,,,,5,0,20,3,574.1154417,,574.1020589,574.1154417,575.1156826,575.1156826,575.1156826,575.1156826,575.1156826,576.1160798,576.1160798,576.7839036,z,1,0.6541549,None,participant,1,2024-10-11_11h21.46.104,D6_exp6_MotorSequenceLearning,2024.1.5,None,2024-10-11 11h22.06.475114 +0530
-150,z,,,,,5,1,21,3,576.7992564,,576.7867738,576.7992564,577.7996059,577.7996059,577.7996059,577.7996059,577.7996059,578.7993019,578.7993019,579.3009097,z,1,0.4861188,None,participant,1,2024-10-11_11h21.46.104,D6_exp6_MotorSequenceLearning,2024.1.5,None,2024-10-11 11h22.06.475114 +0530
-50,x,,,,,5,2,22,0,579.3161363,,579.3028148,579.3161363,580.3162467,580.3162467,580.3162467,580.3162467,580.3162467,581.3161809,581.3161809,582.0688245,x,1,0.7507959,None,participant,1,2024-10-11_11h21.46.104,D6_exp6_MotorSequenceLearning,2024.1.5,None,2024-10-11 11h22.06.475114 +0530
150,v,,,,,5,3,23,1,582.0829762,,582.0705792,582.0829762,583.0831196,583.0831196,583.0831196,583.0831196,583.0831196,584.0835504,584.0835504,584.9191765,v,1,0.8295519,None,participant,1,2024-10-11_11h21.46.104,D6_exp6_MotorSequenceLearning,2024.1.5,None,2024-10-11 11h22.06.475114 +0530
150,v,,,,,6,0,24,1,584.9336704,,584.9209992,584.9336704,585.9336485,585.9336485,585.9336485,585.9336485,585.9336485,586.9335654,586.9335654,587.5183569,v,1,0.5802699,None,participant,1,2024-10-11_11h21.46.104,D6_exp6_MotorSequenceLearning,2024.1.5,None,2024-10-11 11h22.06.475114 +0530
-150,z,,,,,6,1,25,3,587.533848,,587.5212375,587.533848,588.5340011,588.5340011,588.5340011,588.5340011,588.5340011,589.5338139,589.5338139,590.4519963,z,1,0.9069866,None,participant,1,2024-10-11_11h21.46.104,D6_exp6_MotorSequenceLearning,2024.1.5,None,2024-10-11 11h22.06.475114 +0530
150,v,,,,,6,2,26,1,590.4672145,,590.4541017,590.4672145,591.4680297,591.4680297,591.4680297,591.4680297,591.4680297,592.4678534,592.4678534,593.0855503,v,1,0.6143032,None,participant,1,2024-10-11_11h21.46.104,D6_exp6_MotorSequenceLearning,2024.1.5,None,2024-10-11 11h22.06.475114 +0530
50,c,,,,,6,3,27,2,593.10093,,593.0877674,593.10093,594.1009164,594.1009164,594.1009164,594.1009164,594.1009164,595.1013665,595.1013665,596.0028202,c,1,0.8971524,None,participant,1,2024-10-11_11h21.46.104,D6_exp6_MotorSequenceLearning,2024.1.5,None,2024-10-11 11h22.06.475114 +0530
-150,z,,,,,7,0,28,3,596.0180852,,596.0051224,596.0180852,597.0182886,597.0182886,597.0182886,597.0182886,597.0182886,598.0179743,598.0179743,598.6907039,z,1,0.6510022,None,participant,1,2024-10-11_11h21.46.104,D6_exp6_MotorSequenceLearning,2024.1.5,None,2024-10-11 11h22.06.475114 +0530
-150,z,,,,,7,1,29,3,598.7012552,,598.692291,598.7012552,599.7014516,599.7014516,599.7014516,599.7014516,599.7014516,600.7017403,600.7017403,601.2199138,z,1,0.5028292,None,participant,1,2024-10-11_11h21.46.104,D6_exp6_MotorSequenceLearning,2024.1.5,None,2024-10-11 11h22.06.475114 +0530
-50,x,,,,,7,2,30,0,601.234972,,601.2213262,601.234972,602.2352153,602.2352153,602.2352153,602.2352153,602.2352153,603.2351792,603.2351792,603.9709613,x,1,0.7302755,None,participant,1,2024-10-11_11h21.46.104,D6_exp6_MotorSequenceLearning,2024.1.5,None,2024-10-11 11h22.06.475114 +0530
-50,x,,,,,7,3,31,0,603.9854219,,603.9727145,603.9854219,604.9852779,604.9852779,604.9852779,604.9852779,604.9852779,605.9854143,605.9854143,606.7543778,x,1,0.7617215,None,participant,1,2024-10-11_11h21.46.104,D6_exp6_MotorSequenceLearning,2024.1.5,None,2024-10-11 11h22.06.475114 +0530
150,v,,,,,8,0,32,1,606.7690264,,606.7563129,606.7690264,607.7689447,607.7689447,607.7689447,607.7689447,607.7689447,608.7690999,608.7690999,609.4375642,v,1,0.6647981,None,participant,1,2024-10-11_11h21.46.104,D6_exp6_MotorSequenceLearning,2024.1.5,None,2024-10-11 11h22.06.475114 +0530
-150,z,,,,,8,1,33,3,609.4526049,,609.4394083,609.4526049,610.4527333,610.4527333,610.4527333,610.4527333,610.4527333,611.4528085,611.4528085,612.1390888,z,1,0.6705234,None,participant,1,2024-10-11_11h21.46.104,D6_exp6_MotorSequenceLearning,2024.1.5,None,2024-10-11 11h22.06.475114 +0530
50,c,,,,,8,2,34,2,612.1532462,,612.1409766,612.1532462,613.1530534,613.1530534,613.1530534,613.1530534,613.1530534,614.1532089,614.1532089,615.2556109,c,1,1.0922893,None,participant,1,2024-10-11_11h21.46.104,D6_exp6_MotorSequenceLearning,2024.1.5,None,2024-10-11 11h22.06.475114 +0530
-150,z,,,,,8,3,35,3,615.2697551,,615.2570722,615.2697551,616.2698965,616.2698965,616.2698965,616.2698965,616.2698965,617.2701934,617.2701934,617.7880681,z,1,0.5154779,None,participant,1,2024-10-11_11h21.46.104,D6_exp6_MotorSequenceLearning,2024.1.5,None,2024-10-11 11h22.06.475114 +0530
-150,z,,,,,9,0,36,3,617.80338,,617.7899518,617.80338,618.8041118,618.8041118,618.8041118,618.8041118,618.8041118,619.803797,619.803797,620.4728833,z,1,0.663017,None,participant,1,2024-10-11_11h21.46.104,D6_exp6_MotorSequenceLearning,2024.1.5,None,2024-10-11 11h22.06.475114 +0530
-50,x,,,,,9,1,37,0,620.4872102,,620.4745859,620.4872102,621.487041,621.487041,621.487041,621.487041,621.487041,622.4873108,622.4873108,623.1060283,x,1,0.6102666,None,participant,1,2024-10-11_11h21.46.104,D6_exp6_MotorSequenceLearning,2024.1.5,None,2024-10-11 11h22.06.475114 +0530
-50,x,,,,,9,2,38,0,623.1210365,,623.1086868,623.1210365,624.1207955,624.1207955,624.1207955,624.1207955,624.1207955,625.1208703,625.1208703,625.672825,x,1,0.5369003,None,participant,1,2024-10-11_11h21.46.104,D6_exp6_MotorSequenceLearning,2024.1.5,None,2024-10-11 11h22.06.475114 +0530
-150,z,,,,,9,3,39,3,625.6875669,,625.674667,625.6875669,626.687683,626.687683,626.687683,626.687683,626.687683,627.6887722,627.6887722,628.6228195,z,1,0.9314454,None,participant,1,2024-10-11_11h21.46.104,D6_exp6_MotorSequenceLearning,2024.1.5,None,2024-10-11 11h22.06.475114 +0530
-150,z,,,,,10,0,40,3,628.6381567,,628.6257559,628.6381567,629.6380736,629.6380736,629.6380736,629.6380736,629.6380736,630.6381343,630.6381343,631.3071062,z,1,0.6520662,None,participant,1,2024-10-11_11h21.46.104,D6_exp6_MotorSequenceLearning,2024.1.5,None,2024-10-11 11h22.06.475114 +0530
-150,z,,,,,10,1,41,3,631.3214289,,631.3094611,631.3214289,632.3214957,632.3214957,632.3214957,632.3214957,632.3214957,633.3216088,633.3216088,633.923399,z,1,0.5896086,None,participant,1,2024-10-11_11h21.46.104,D6_exp6_MotorSequenceLearning,2024.1.5,None,2024-10-11 11h22.06.475114 +0530
-150,z,,,,,10,2,42,3,633.9384925,,633.9260881,633.9384925,634.9386808,634.9386808,634.9386808,634.9386808,634.9386808,635.9386396,635.9386396,636.4899028,z,1,0.5437099,None,participant,1,2024-10-11_11h21.46.104,D6_exp6_MotorSequenceLearning,2024.1.5,None,2024-10-11 11h22.06.475114 +0530
150,v,,,,,10,3,43,1,636.5057724,,636.4915102,636.5057724,637.5054607,637.5054607,637.5054607,637.5054607,637.5054607,638.5054925,638.5054925,639.1745305,v,1,0.6623146,None,participant,1,2024-10-11_11h21.46.104,D6_exp6_MotorSequenceLearning,2024.1.5,None,2024-10-11 11h22.06.475114 +0530
-50,x,,,,,11,0,44,0,639.1890271,,639.1765541,639.1890271,640.1890238,640.1890238,640.1890238,640.1890238,640.1890238,641.1904472,641.1904472,641.7743282,x,1,0.568468,None,participant,1,2024-10-11_11h21.46.104,D6_exp6_MotorSequenceLearning,2024.1.5,None,2024-10-11 11h22.06.475114 +0530
50,c,,,,,11,1,45,2,641.7891556,,641.7762895,641.7891556,642.7892273,642.7892273,642.7892273,642.7892273,642.7892273,643.7896178,643.7896178,644.4581679,c,1,0.6643701,None,participant,1,2024-10-11_11h21.46.104,D6_exp6_MotorSequenceLearning,2024.1.5,None,2024-10-11 11h22.06.475114 +0530
-150,z,,,,,11,2,46,3,644.4733242,,644.4618208,644.4733242,645.4729446,645.4729446,645.4729446,645.4729446,645.4729446,646.4729992,646.4729992,647.257489,z,1,0.767627,None,participant,1,2024-10-11_11h21.46.104,D6_exp6_MotorSequenceLearning,2024.1.5,None,2024-10-11 11h22.06.475114 +0530
-150,z,,,,,11,3,47,3,647.2731474,,647.2585849,647.2731474,648.2732149,648.2732149,648.2732149,648.2732149,648.2732149,649.2731443,649.2731443,649.7586017,z,1,0.4687345,None,participant,1,2024-10-11_11h21.46.104,D6_exp6_MotorSequenceLearning,2024.1.5,None,2024-10-11 11h22.06.475114 +0530
50,c,,,,,12,0,48,2,649.7733695,,649.7609945,649.7733695,650.7570569,650.7570569,650.7570569,650.7570569,650.7734188,651.7735464,651.7735464,652.3757776,v,0,0.5934824,None,participant,1,2024-10-11_11h21.46.104,D6_exp6_MotorSequenceLearning,2024.1.5,None,2024-10-11 11h22.06.475114 +0530
-50,x,,,,,12,1,49,0,652.3903479,,652.3781671,652.3903479,653.3908448,653.3908448,653.3908448,653.3908448,653.3908448,654.3908222,654.3908222,654.9926277,x,1,0.586628,None,participant,1,2024-10-11_11h21.46.104,D6_exp6_MotorSequenceLearning,2024.1.5,None,2024-10-11 11h22.06.475114 +0530
-150,z,,,,,12,2,50,3,655.0077461,,654.9941932,655.0077461,656.0074221,656.0074221,656.0074221,656.0074221,656.0074221,657.0076467,657.0076467,657.7097136,z,1,0.7002275,None,participant,1,2024-10-11_11h21.46.104,D6_exp6_MotorSequenceLearning,2024.1.5,None,2024-10-11 11h22.06.475114 +0530
-50,x,,,,,12,3,51,0,657.7242613,,657.7109123,657.7242613,658.7246972,658.7246972,658.7246972,658.7246972,658.7246972,659.7247595,659.7247595,660.5276989,x,1,0.7905745,None,participant,1,2024-10-11_11h21.46.104,D6_exp6_MotorSequenceLearning,2024.1.5,None,2024-10-11 11h22.06.475114 +0530
150,v,,,,,13,0,52,1,660.541375,,660.5296913,660.541375,661.5412092,661.5412092,661.5412092,661.5412092,661.5412092,662.5415008,662.5415008,663.1427737,v,1,0.5944461,None,participant,1,2024-10-11_11h21.46.104,D6_exp6_MotorSequenceLearning,2024.1.5,None,2024-10-11 11h22.06.475114 +0530
-50,x,,,,,13,1,53,0,663.158735,,663.1455612,663.158735,664.15834,664.15834,664.15834,664.15834,664.15834,665.1585682,665.1585682,665.9599715,x,1,0.7939816,None,participant,1,2024-10-11_11h21.46.104,D6_exp6_MotorSequenceLearning,2024.1.5,None,2024-10-11 11h22.06.475114 +0530
-150,z,,,,,13,2,54,3,665.9750983,,665.9622012,665.9750983,666.9751708,666.9751708,666.9751708,666.9751708,666.9751708,667.9752265,667.9752265,668.7263641,z,1,0.7436405,None,participant,1,2024-10-11_11h21.46.104,D6_exp6_MotorSequenceLearning,2024.1.5,None,2024-10-11 11h22.06.475114 +0530
-150,z,,,,,13,3,55,3,668.7423408,,668.7284942,668.7423408,669.742203,669.742203,669.742203,669.742203,669.742203,670.7422264,670.7422264,671.4274313,z,1,0.6727793,None,participant,1,2024-10-11_11h21.46.104,D6_exp6_MotorSequenceLearning,2024.1.5,None,2024-10-11 11h22.06.475114 +0530
50,c,,,,,14,0,56,2,671.4424503,,671.4308449,671.4424503,672.4424638,672.4424638,672.4424638,672.4424638,672.4424638,673.4427309,673.4427309,674.1278537,c,1,0.678703,None,participant,1,2024-10-11_11h21.46.104,D6_exp6_MotorSequenceLearning,2024.1.5,None,2024-10-11 11h22.06.475114 +0530
50,c,,,,,14,1,57,2,674.1424908,,674.129194,674.1424908,675.1426609,675.1426609,675.1426609,675.1426609,675.1426609,676.1428746,676.1428746,676.7446108,c,1,0.5887614,None,participant,1,2024-10-11_11h21.46.104,D6_exp6_MotorSequenceLearning,2024.1.5,None,2024-10-11 11h22.06.475114 +0530
-50,x,,,,,14,2,58,0,676.7599301,,676.7480408,676.7599301,677.7604889,677.7604889,677.7604889,677.7604889,677.7604889,678.7599276,678.7599276,679.5952135,x,1,0.8337288,None,participant,1,2024-10-11_11h21.46.104,D6_exp6_MotorSequenceLearning,2024.1.5,None,2024-10-11 11h22.06.475114 +0530
50,c,,,,,14,3,59,2,679.6097896,,679.5964742,679.6097896,680.6098357,680.6098357,680.6098357,680.6098357,680.6098357,681.6100961,681.6100961,682.1786475,c,1,0.5587346,None,participant,1,2024-10-11_11h21.46.104,D6_exp6_MotorSequenceLearning,2024.1.5,None,2024-10-11 11h22.06.475114 +0530
-50,x,,,,,15,0,60,0,682.194122,,682.1816575,682.194122,683.193507,683.193507,683.193507,683.193507,683.193507,684.1934216,684.1934216,684.8130733,x,1,0.6063361,None,participant,1,2024-10-11_11h21.46.104,D6_exp6_MotorSequenceLearning,2024.1.5,None,2024-10-11 11h22.06.475114 +0530
-50,x,,,,,15,1,61,0,684.8273888,,684.8152115,684.8273888,685.8272957,685.8272957,685.8272957,685.8272957,685.8272957,686.8272609,686.8272609,687.3618452,x,1,0.5283457,None,participant,1,2024-10-11_11h21.46.104,D6_exp6_MotorSequenceLearning,2024.1.5,None,2024-10-11 11h22.06.475114 +0530
-150,z,,,,,15,2,62,3,687.3772556,,687.3646373,687.3772556,688.3774571,688.3774571,688.3774571,688.3774571,688.3774571,689.3773818,689.3773818,689.9958781,z,1,0.6135788,None,participant,1,2024-10-11_11h21.46.104,D6_exp6_MotorSequenceLearning,2024.1.5,None,2024-10-11 11h22.06.475114 +0530
-150,z,,,,,15,3,63,3,690.0108466,,689.9975389,690.0108466,691.0113785,691.0113785,691.0113785,691.0113785,691.0113785,692.010998,692.010998,692.646913,z,1,0.6203252,None,participant,1,2024-10-11_11h21.46.104,D6_exp6_MotorSequenceLearning,2024.1.5,None,2024-10-11 11h22.06.475114 +0530
50,c,,,,,16,0,64,2,692.6612042,,692.6487823,692.6612042,693.6612056,693.6612056,693.6612056,693.6612056,693.6612056,694.6614348,694.6614348,695.3791225,c,1,0.7060435,None,participant,1,2024-10-11_11h21.46.104,D6_exp6_MotorSequenceLearning,2024.1.5,None,2024-10-11 11h22.06.475114 +0530
-150,z,,,,,16,1,65,3,695.3948953,,695.3814461,695.3948953,696.3950146,696.3950146,696.3950146,696.3950146,696.3950146,697.3949746,697.3949746,698.0973183,z,1,0.6992823,None,participant,1,2024-10-11_11h21.46.104,D6_exp6_MotorSequenceLearning,2024.1.5,None,2024-10-11 11h22.06.475114 +0530
-50,x,,,,,16,2,66,0,698.1117285,,698.0994097,698.1117285,699.1116836,699.1116836,699.1116836,699.1116836,699.1116836,700.1122323,700.1122323,700.764148,x,1,0.6430887,None,participant,1,2024-10-11_11h21.46.104,D6_exp6_MotorSequenceLearning,2024.1.5,None,2024-10-11 11h22.06.475114 +0530
-50,x,,,,,16,3,67,0,700.7787815,,700.7660976,700.7787815,701.7791188,701.7791188,701.7791188,701.7791188,701.7791188,702.7787438,702.7787438,703.4313528,x,1,0.6372455,None,participant,1,2024-10-11_11h21.46.104,D6_exp6_MotorSequenceLearning,2024.1.5,None,2024-10-11 11h22.06.475114 +0530
-150,z,,,,,17,0,68,3,703.4456554,,703.4333202,703.4456554,704.4456278,704.4456278,704.4456278,704.4456278,704.4456278,705.445715,705.445715,706.1306833,z,1,0.6705801,None,participant,1,2024-10-11_11h21.46.104,D6_exp6_MotorSequenceLearning,2024.1.5,None,2024-10-11 11h22.06.475114 +0530
150,v,,,,,17,1,69,1,706.1463983,,706.1340709,706.1463983,707.1460501,707.1460501,707.1460501,707.1460501,707.1460501,708.1460452,708.1460452,708.7977011,v,1,0.6469298,None,participant,1,2024-10-11_11h21.46.104,D6_exp6_MotorSequenceLearning,2024.1.5,None,2024-10-11 11h22.06.475114 +0530
50,c,,,,,17,2,70,2,708.812999,,708.7997943,708.812999,709.8129437,709.8129437,709.8129437,709.8129437,709.8129437,710.8133187,710.8133187,711.5480973,c,1,0.7251112,None,participant,1,2024-10-11_11h21.46.104,D6_exp6_MotorSequenceLearning,2024.1.5,None,2024-10-11 11h22.06.475114 +0530
50,c,,,,,17,3,71,2,711.5633697,,711.5505786,711.5633697,712.5632965,712.5632965,712.5632965,712.5632965,712.5632965,713.5633387,713.5633387,714.2310377,c,1,0.6566336,None,participant,1,2024-10-11_11h21.46.104,D6_exp6_MotorSequenceLearning,2024.1.5,None,2024-10-11 11h22.06.475114 +0530
50,c,,,,,18,0,72,2,714.2466701,,714.2329923,714.2466701,715.2468158,715.2468158,715.2468158,715.2468158,715.2468158,716.2468715,716.2468715,716.9822924,c,1,0.7317588,None,participant,1,2024-10-11_11h21.46.104,D6_exp6_MotorSequenceLearning,2024.1.5,None,2024-10-11 11h22.06.475114 +0530
-150,z,,,,,18,1,73,3,716.9971848,,716.9843434,716.9971848,717.9971664,717.9971664,717.9971664,717.9971664,717.9971664,718.9972661,718.9972661,719.6658696,z,1,0.6601725,None,participant,1,2024-10-11_11h21.46.104,D6_exp6_MotorSequenceLearning,2024.1.5,None,2024-10-11 11h22.06.475114 +0530
150,v,,,,,18,2,74,1,719.6806562,,719.6682359,719.6806562,720.6807649,720.6807649,720.6807649,720.6807649,720.6807649,721.6808633,721.6808633,722.4837924,v,1,0.7930365,None,participant,1,2024-10-11_11h21.46.104,D6_exp6_MotorSequenceLearning,2024.1.5,None,2024-10-11 11h22.06.475114 +0530
-50,x,,,,,18,3,75,0,722.4978586,,722.4857269,722.4978586,723.4975846,723.4975846,723.4975846,723.4975846,723.4975846,724.4977894,724.4977894,725.5330346,x,1,1.0179103,None,participant,1,2024-10-11_11h21.46.104,D6_exp6_MotorSequenceLearning,2024.1.5,None,2024-10-11 11h22.06.475114 +0530
150,v,,,,,19,0,76,1,725.5478857,,725.5357281,725.5478857,726.5484227,726.5484227,726.5484227,726.5484227,726.5484227,727.5479719,727.5479719,728.4505974,v,1,0.8852257,None,participant,1,2024-10-11_11h21.46.104,D6_exp6_MotorSequenceLearning,2024.1.5,None,2024-10-11 11h22.06.475114 +0530
50,c,,,,,19,1,77,2,728.4649136,,728.4525378,728.4649136,729.4650051,729.4650051,729.4650051,729.4650051,729.4650051,730.4649595,730.4649595,731.3506053,c,1,0.8752033,None,participant,1,2024-10-11_11h21.46.104,D6_exp6_MotorSequenceLearning,2024.1.5,None,2024-10-11 11h22.06.475114 +0530
150,v,,,,,19,2,78,1,731.3653986,,731.3520848,731.3653986,732.3653179,732.3653179,732.3653179,732.3653179,732.3653179,733.3652744,733.3652744,735.8669834,v,1,2.4849263,None,participant,1,2024-10-11_11h21.46.104,D6_exp6_MotorSequenceLearning,2024.1.5,None,2024-10-11 11h22.06.475114 +0530
50,c,,,,,19,3,79,2,735.8822477,,735.8696825,735.8822477,736.8823969,736.8823969,736.8823969,736.8823969,736.8823969,737.8825433,737.8825433,738.5341345,c,1,0.6415592,None,participant,1,2024-10-11_11h21.46.104,D6_exp6_MotorSequenceLearning,2024.1.5,None,2024-10-11 11h22.06.475114 +0530
150,v,,,,,20,0,80,1,738.5493037,,738.5355101,738.5493037,739.5493338,739.5493338,739.5493338,739.5493338,739.5493338,740.5494854,740.5494854,741.4177283,v,1,0.8566507,None,participant,1,2024-10-11_11h21.46.104,D6_exp6_MotorSequenceLearning,2024.1.5,None,2024-10-11 11h22.06.475114 +0530
-150,z,,,,,20,1,81,3,741.4334196,,741.4205703,741.4334196,742.4331854,742.4331854,742.4331854,742.4331854,742.4331854,743.4330785,743.4330785,744.1851917,z,1,0.744564,None,participant,1,2024-10-11_11h21.46.104,D6_exp6_MotorSequenceLearning,2024.1.5,None,2024-10-11 11h22.06.475114 +0530
150,v,,,,,20,2,82,1,744.1997907,,744.1870628,744.1997907,745.1999473,745.1999473,745.1999473,745.1999473,745.1999473,746.2001622,746.2001622,746.7685726,v,1,0.5586659,None,participant,1,2024-10-11_11h21.46.104,D6_exp6_MotorSequenceLearning,2024.1.5,None,2024-10-11 11h22.06.475114 +0530
50,c,,,,,20,3,83,2,746.7835504,,746.771182,746.7835504,747.7835089,747.7835089,747.7835089,747.7835089,747.7835089,748.7835545,748.7835545,749.1866013,c,1,0.3997341,None,participant,1,2024-10-11_11h21.46.104,D6_exp6_MotorSequenceLearning,2024.1.5,None,2024-10-11 11h22.06.475114 +0530
-50,x,,,,,21,0,84,0,749.2007606,,749.1885821,749.2007606,750.2004342,750.2004342,750.2004342,750.2004342,750.2004342,751.2004302,751.2004302,751.8021233,x,1,0.58843,None,participant,1,2024-10-11_11h21.46.104,D6_exp6_MotorSequenceLearning,2024.1.5,None,2024-10-11 11h22.06.475114 +0530
50,c,,,,,21,1,85,2,751.8173268,,751.8043309,751.8173268,752.8176376,752.8176376,752.8176376,752.8176376,752.8176376,753.8176973,753.8176973,754.6193749,c,1,0.7872179,None,participant,1,2024-10-11_11h21.46.104,D6_exp6_MotorSequenceLearning,2024.1.5,None,2024-10-11 11h22.06.475114 +0530
-150,z,,,,,21,2,86,3,754.6341698,,754.6213171,754.6341698,755.6343393,755.6343393,755.6343393,755.6343393,755.6343393,756.634564,756.634564,757.2865999,z,1,0.6372895,None,participant,1,2024-10-11_11h21.46.104,D6_exp6_MotorSequenceLearning,2024.1.5,None,2024-10-11 11h22.06.475114 +0530
-50,x,,,,,21,3,87,0,757.3011391,,757.2887497,757.3011391,758.3012957,758.3012957,758.3012957,758.3012957,758.3012957,759.3012851,759.3012851,759.7869668,x,1,0.4695011,None,participant,1,2024-10-11_11h21.46.104,D6_exp6_MotorSequenceLearning,2024.1.5,None,2024-10-11 11h22.06.475114 +0530
150,v,,,,,22,0,88,1,759.8015021,,759.7888669,759.8015021,760.8015322,760.8015322,760.8015322,760.8015322,760.8015322,761.8020667,761.8020667,762.6877224,v,1,0.8671619,None,participant,1,2024-10-11_11h21.46.104,D6_exp6_MotorSequenceLearning,2024.1.5,None,2024-10-11 11h22.06.475114 +0530
150,v,,,,,22,1,89,1,762.7018118,,762.6921793,762.7018118,763.7018676,763.7018676,763.7018676,763.7018676,763.7018676,764.7019366,764.7019366,765.3036768,v,1,0.5964628,None,participant,1,2024-10-11_11h21.46.104,D6_exp6_MotorSequenceLearning,2024.1.5,None,2024-10-11 11h22.06.475114 +0530
50,c,,,,,22,2,90,2,765.3188174,,765.3055358,765.3188174,766.3188568,766.3188568,766.3188568,766.3188568,766.3188568,767.3194441,767.3194441,767.9873244,c,1,0.6650572,None,participant,1,2024-10-11_11h21.46.104,D6_exp6_MotorSequenceLearning,2024.1.5,None,2024-10-11 11h22.06.475114 +0530
150,v,,,,,22,3,91,1,768.0023018,,767.9910699,768.0023018,769.0023033,769.0023033,769.0023033,769.0023033,769.0023033,770.0025013,770.0025013,770.6709395,v,1,0.6524327,None,participant,1,2024-10-11_11h21.46.104,D6_exp6_MotorSequenceLearning,2024.1.5,None,2024-10-11 11h22.06.475114 +0530
50,c,,,,,23,0,92,2,770.6864649,,770.6731435,770.6864649,771.6860532,771.6860532,771.6860532,771.6860532,771.6860532,772.6861827,772.6861827,773.5051637,c,1,0.8011372,None,participant,1,2024-10-11_11h21.46.104,D6_exp6_MotorSequenceLearning,2024.1.5,None,2024-10-11 11h22.06.475114 +0530
50,c,,,,,23,1,93,2,773.5194686,,773.5070149,773.5194686,774.5195823,774.5195823,774.5195823,774.5195823,774.5195823,775.5198269,775.5198269,776.7386108,c,1,1.2100006,None,participant,1,2024-10-11_11h21.46.104,D6_exp6_MotorSequenceLearning,2024.1.5,None,2024-10-11 11h22.06.475114 +0530
50,c,,,,,23,2,94,2,776.7535508,,776.741651,776.7535508,777.7531922,777.7531922,777.7531922,777.7531922,777.7531922,778.7535872,778.7535872,779.2735243,c,1,0.5116013,None,participant,1,2024-10-11_11h21.46.104,D6_exp6_MotorSequenceLearning,2024.1.5,None,2024-10-11 11h22.06.475114 +0530
50,c,,,,,23,3,95,2,779.2868157,,779.2755681,779.2868157,780.2868599,780.2868599,780.2868599,780.2868599,780.2868599,781.2871574,781.2871574,781.8891699,c,1,0.5892705,None,participant,1,2024-10-11_11h21.46.104,D6_exp6_MotorSequenceLearning,2024.1.5,None,2024-10-11 11h22.06.475114 +0530
-50,x,,,,,24,0,96,0,781.9041727,,781.8914263,781.9041727,782.9039355,782.9039355,782.9039355,782.9039355,782.9039355,783.9039543,783.9039543,785.0562929,x,1,1.1499443,None,participant,1,2024-10-11_11h21.46.104,D6_exp6_MotorSequenceLearning,2024.1.5,None,2024-10-11 11h22.06.475114 +0530
-150,z,,,,,24,1,97,3,785.0709625,,785.0583194,785.0709625,786.070971,786.070971,786.070971,786.070971,786.070971,787.0709649,787.0709649,787.9557237,z,1,0.8743991,None,participant,1,2024-10-11_11h21.46.104,D6_exp6_MotorSequenceLearning,2024.1.5,None,2024-10-11 11h22.06.475114 +0530
150,v,,,,,24,2,98,1,787.9712684,,787.9571611,787.9712684,788.9715425,788.9715425,788.9715425,788.9715425,788.9715425,789.9714234,789.9714234,790.8399259,v,1,0.860983,None,participant,1,2024-10-11_11h21.46.104,D6_exp6_MotorSequenceLearning,2024.1.5,None,2024-10-11 11h22.06.475114 +0530
150,v,,,,,24,3,99,1,790.8560882,,790.8418415,790.8560882,791.8549105,791.8549105,791.8549105,791.8549105,791.8716555,792.8548496,792.8548496,793.4897247,v,1,0.6227007,None,participant,1,2024-10-11_11h21.46.104,D6_exp6_MotorSequenceLearning,2024.1.5,None,2024-10-11 11h22.06.475114 +0530
-150,z,,,,,25,0,100,3,793.5049165,,793.4918216,793.5049165,794.5056125,794.5056125,794.5056125,794.5056125,794.5056125,795.5054052,795.5054052,796.3235285,z,1,0.8035361,None,participant,1,2024-10-11_11h21.46.104,D6_exp6_MotorSequenceLearning,2024.1.5,None,2024-10-11 11h22.06.475114 +0530
-150,z,,,,,25,1,101,3,796.3386673,,796.3265415,796.3386673,797.3388462,797.3388462,797.3388462,797.3388462,797.3388462,798.3387299,798.3387299,799.1737678,z,1,0.8264454,None,participant,1,2024-10-11_11h21.46.104,D6_exp6_MotorSequenceLearning,2024.1.5,None,2024-10-11 11h22.06.475114 +0530
50,c,,,,,25,2,102,2,799.1888527,,799.1756379,799.1888527,800.188906,800.188906,800.188906,800.188906,800.188906,801.1890944,801.1890944,802.2070692,c,1,1.0141715,None,participant,1,2024-10-11_11h21.46.104,D6_exp6_MotorSequenceLearning,2024.1.5,None,2024-10-11 11h22.06.475114 +0530
50,c,,,,,25,3,103,2,802.2228002,,802.209628,802.2228002,803.2224961,803.2224961,803.2224961,803.2224961,803.2224961,804.2226314,804.2226314,805.0907235,c,1,0.8522849,None,participant,1,2024-10-11_11h21.46.104,D6_exp6_MotorSequenceLearning,2024.1.5,None,2024-10-11 11h22.06.475114 +0530
-150,z,,,,,26,0,104,3,805.1060765,,805.0921483,805.1060765,806.1070157,806.1070157,806.1070157,806.1070157,806.1070157,807.1064237,807.1064237,807.808092,z,1,0.6994421,None,participant,1,2024-10-11_11h21.46.104,D6_exp6_MotorSequenceLearning,2024.1.5,None,2024-10-11 11h22.06.475114 +0530
-150,z,,,,,26,1,105,3,807.8230328,,807.8097537,807.8230328,808.8231923,808.8231923,808.8231923,808.8231923,808.8231923,809.8235529,809.8235529,810.6584437,z,1,0.830893,None,participant,1,2024-10-11_11h21.46.104,D6_exp6_MotorSequenceLearning,2024.1.5,None,2024-10-11 11h22.06.475114 +0530
-50,x,,,,,26,2,106,0,810.6733193,,810.6603501,810.6733193,811.6733901,811.6733901,811.6733901,811.6733901,811.6733901,812.6736338,812.6736338,813.4252494,x,1,0.7450751,None,participant,1,2024-10-11_11h21.46.104,D6_exp6_MotorSequenceLearning,2024.1.5,None,2024-10-11 11h22.06.475114 +0530
50,c,,,,,26,3,107,2,813.4403813,,813.4280173,813.4403813,814.4408412,814.4408412,814.4408412,814.4408412,814.4408412,815.4406836,815.4406836,816.2086429,c,1,0.754525,None,participant,1,2024-10-11_11h21.46.104,D6_exp6_MotorSequenceLearning,2024.1.5,None,2024-10-11 11h22.06.475114 +0530
50,c,,,,,27,0,108,2,816.2240125,,816.2110436,816.2240125,817.2240311,817.2240311,817.2240311,817.2240311,817.2240311,818.2241445,818.2241445,818.8266148,c,1,0.5856327,None,participant,1,2024-10-11_11h21.46.104,D6_exp6_MotorSequenceLearning,2024.1.5,None,2024-10-11 11h22.06.475114 +0530
50,c,,,,,27,1,109,2,818.8413659,,818.8297346,818.8413659,819.840985,819.840985,819.840985,819.840985,819.840985,820.8411136,820.8411136,821.4923738,c,1,0.6456092,None,participant,1,2024-10-11_11h21.46.104,D6_exp6_MotorSequenceLearning,2024.1.5,None,2024-10-11 11h22.06.475114 +0530
50,c,,,,,27,2,110,2,821.5082273,,821.4948444,821.5082273,822.5082367,822.5082367,822.5082367,822.5082367,822.5082367,823.5080321,823.5080321,824.0263567,c,1,0.513524,None,participant,1,2024-10-11_11h21.46.104,D6_exp6_MotorSequenceLearning,2024.1.5,None,2024-10-11 11h22.06.475114 +0530
-150,z,,,,,27,3,111,3,824.0414088,,824.0272401,824.0414088,825.0415123,825.0415123,825.0415123,825.0415123,825.0415123,826.0418454,826.0418454,826.8269872,z,1,0.7768409,None,participant,1,2024-10-11_11h21.46.104,D6_exp6_MotorSequenceLearning,2024.1.5,None,2024-10-11 11h22.06.475114 +0530
-150,z,,,,,28,0,112,3,826.8417289,,826.8290055,826.8417289,827.842109,827.842109,827.842109,827.842109,827.842109,828.8419615,828.8419615,829.2950239,z,1,0.4508764,None,participant,1,2024-10-11_11h21.46.104,D6_exp6_MotorSequenceLearning,2024.1.5,None,2024-10-11 11h22.06.475114 +0530
150,v,,,,,28,1,113,1,829.3087835,,829.297014,829.3087835,830.3088385,830.3088385,830.3088385,830.3088385,830.3088385,831.3087259,831.3087259,831.9104642,v,1,0.5888639,None,participant,1,2024-10-11_11h21.46.104,D6_exp6_MotorSequenceLearning,2024.1.5,None,2024-10-11 11h22.06.475114 +0530
50,c,,,,,28,2,114,2,831.9256155,,831.9123732,831.9256155,832.9256687,832.9256687,832.9256687,832.9256687,832.9256687,833.9261297,833.9261297,834.5771343,c,1,0.643624,None,participant,1,2024-10-11_11h21.46.104,D6_exp6_MotorSequenceLearning,2024.1.5,None,2024-10-11 11h22.06.475114 +0530
-50,x,,,,,28,3,115,0,834.5924017,,834.5788537,834.5924017,835.5926944,835.5926944,835.5926944,835.5926944,835.5926944,836.59296,836.59296,837.1614369,x,1,0.5516467,None,participant,1,2024-10-11_11h21.46.104,D6_exp6_MotorSequenceLearning,2024.1.5,None,2024-10-11 11h22.06.475114 +0530
-150,z,,,,,29,0,116,3,837.1762069,,837.1635138,837.1762069,838.1762194,838.1762194,838.1762194,838.1762194,838.1762194,839.1762456,839.1762456,839.8945236,z,1,0.7097247,None,participant,1,2024-10-11_11h21.46.104,D6_exp6_MotorSequenceLearning,2024.1.5,None,2024-10-11 11h22.06.475114 +0530
-50,x,,,,,29,1,117,0,839.9098805,,839.8956147,839.9098805,840.9098823,840.9098823,840.9098823,840.9098823,840.9098823,841.910243,841.910243,842.6280563,x,1,0.7076266,None,participant,1,2024-10-11_11h21.46.104,D6_exp6_MotorSequenceLearning,2024.1.5,None,2024-10-11 11h22.06.475114 +0530
50,c,,,,,29,2,118,2,842.6437445,,842.6306734,842.6437445,843.64342,843.64342,843.64342,843.64342,843.64342,844.6435712,844.6435712,845.2283341,c,1,0.5676651,None,participant,1,2024-10-11_11h21.46.104,D6_exp6_MotorSequenceLearning,2024.1.5,None,2024-10-11 11h22.06.475114 +0530
-50,x,,,,,29,3,119,0,845.244251,,845.2309552,845.244251,846.2438574,846.2438574,846.2438574,846.2438574,846.2438574,847.2438633,847.2438633,848.0296726,x,1,0.7686854,None,participant,1,2024-10-11_11h21.46.104,D6_exp6_MotorSequenceLearning,2024.1.5,None,2024-10-11 11h22.06.475114 +0530
150,v,,,,,30,0,120,1,848.0440678,,848.0314456,848.0440678,849.043893,849.043893,849.043893,849.043893,849.043893,850.0442442,850.0442442,850.7294919,v,1,0.6704661,None,participant,1,2024-10-11_11h21.46.104,D6_exp6_MotorSequenceLearning,2024.1.5,None,2024-10-11 11h22.06.475114 +0530
50,c,,,,,30,1,121,2,850.7442482,,850.7321623,850.7442482,851.7443649,851.7443649,851.7443649,851.7443649,851.7443649,852.7444857,852.7444857,853.3959628,c,1,0.6399646,None,participant,1,2024-10-11_11h21.46.104,D6_exp6_MotorSequenceLearning,2024.1.5,None,2024-10-11 11h22.06.475114 +0530
150,v,,,,,30,2,122,1,853.4111034,,853.3988931,853.4111034,854.4112505,854.4112505,854.4112505,854.4112505,854.4112505,855.4113892,855.4113892,856.0128478,v,1,0.5995568,None,participant,1,2024-10-11_11h21.46.104,D6_exp6_MotorSequenceLearning,2024.1.5,None,2024-10-11 11h22.06.475114 +0530
-50,x,,,,,30,3,123,0,856.0280001,,856.0142056,856.0280001,857.0281399,857.0281399,857.0281399,857.0281399,857.0281399,858.0287724,858.0287724,858.6299729,x,1,0.5879279,None,participant,1,2024-10-11_11h21.46.104,D6_exp6_MotorSequenceLearning,2024.1.5,None,2024-10-11 11h22.06.475114 +0530
150,v,,,,,31,0,124,1,858.6454029,,858.6323557,858.6454029,859.6451338,859.6451338,859.6451338,859.6451338,859.6451338,860.6452399,860.6452399,861.1633353,v,1,0.5113792,None,participant,1,2024-10-11_11h21.46.104,D6_exp6_MotorSequenceLearning,2024.1.5,None,2024-10-11 11h22.06.475114 +0530
150,v,,,,,31,1,125,1,861.178645,,861.1650809,861.178645,862.1787117,862.1787117,862.1787117,862.1787117,862.1787117,863.1788376,863.1788376,863.5975384,v,1,0.41282,None,participant,1,2024-10-11_11h21.46.104,D6_exp6_MotorSequenceLearning,2024.1.5,None,2024-10-11 11h22.06.475114 +0530
150,v,,,,,31,2,126,1,863.6121646,,863.5994436,863.6121646,864.6123164,864.6123164,864.6123164,864.6123164,864.6123164,865.6125003,865.6125003,866.0972434,v,1,0.469368,None,participant,1,2024-10-11_11h21.46.104,D6_exp6_MotorSequenceLearning,2024.1.5,None,2024-10-11 11h22.06.475114 +0530
-50,x,,,,,31,3,127,0,866.1125066,,866.0991322,866.1125066,867.1125609,867.1125609,867.1125609,867.1125609,867.1125609,868.112731,868.112731,868.6811758,x,1,0.5628003,None,participant,1,2024-10-11_11h21.46.104,D6_exp6_MotorSequenceLearning,2024.1.5,None,2024-10-11 11h22.06.475114 +0530
50,c,,,,,32,0,128,2,868.696174,,868.6831236,868.696174,869.6961926,869.6961926,869.6961926,869.6961926,869.6961926,870.69627,870.69627,871.197525,c,1,0.4855693,None,participant,1,2024-10-11_11h21.46.104,D6_exp6_MotorSequenceLearning,2024.1.5,None,2024-10-11 11h22.06.475114 +0530
50,c,,,,,32,1,129,2,871.2132126,,871.1997294,871.2132126,872.2133089,872.2133089,872.2133089,872.2133089,872.2133089,873.2130719,873.2130719,873.7145439,c,1,0.4886052,None,participant,1,2024-10-11_11h21.46.104,D6_exp6_MotorSequenceLearning,2024.1.5,None,2024-10-11 11h22.06.475114 +0530
-50,x,,,,,32,2,130,0,873.7303723,,873.7161518,873.7303723,874.7300062,874.7300062,874.7300062,874.7300062,874.7300062,875.7301625,875.7301625,876.3658983,x,1,0.6323745,None,participant,1,2024-10-11_11h21.46.104,D6_exp6_MotorSequenceLearning,2024.1.5,None,2024-10-11 11h22.06.475114 +0530
150,v,,,,,32,3,131,1,876.3802284,,876.3677288,876.3802284,877.3802341,877.3802341,877.3802341,877.3802341,877.3802341,878.3803312,878.3803312,878.8988019,v,1,0.5076869,None,participant,1,2024-10-11_11h21.46.104,D6_exp6_MotorSequenceLearning,2024.1.5,None,2024-10-11 11h22.06.475114 +0530
-150,z,,,,,33,0,132,3,878.9138563,,878.9007193,878.9138563,879.9137606,879.9137606,879.9137606,879.9137606,879.9137606,880.9144516,880.9144516,881.4986189,z,1,0.5788587,None,participant,1,2024-10-11_11h21.46.104,D6_exp6_MotorSequenceLearning,2024.1.5,None,2024-10-11 11h22.06.475114 +0530
-150,z,,,,,33,1,133,3,881.5141041,,881.5001511,881.5141041,882.5142079,882.5142079,882.5142079,882.5142079,882.5142079,883.5145575,883.5145575,884.1170193,z,1,0.6000474,None,participant,1,2024-10-11_11h21.46.104,D6_exp6_MotorSequenceLearning,2024.1.5,None,2024-10-11 11h22.06.475114 +0530
150,v,,,,,33,2,134,1,884.1313604,,884.1190383,884.1313604,885.1310322,885.1310322,885.1310322,885.1310322,885.1310322,886.1311549,886.1311549,886.8494459,v,1,0.7150632,None,participant,1,2024-10-11_11h21.46.104,D6_exp6_MotorSequenceLearning,2024.1.5,None,2024-10-11 11h22.06.475114 +0530
-150,z,,,,,33,3,135,3,886.8645373,,886.851114,886.8645373,887.8649788,887.8649788,887.8649788,887.8649788,887.8649788,888.8648073,888.8648073,889.5664559,z,1,0.6979537,None,participant,1,2024-10-11_11h21.46.104,D6_exp6_MotorSequenceLearning,2024.1.5,None,2024-10-11 11h22.06.475114 +0530
-50,x,,,,,34,0,136,0,889.5816743,,889.5682145,889.5816743,890.5817208,890.5817208,890.5817208,890.5817208,890.5817208,891.5816412,891.5816412,892.666159,x,1,1.0678254,None,participant,1,2024-10-11_11h21.46.104,D6_exp6_MotorSequenceLearning,2024.1.5,None,2024-10-11 11h22.06.475114 +0530
-50,x,,,,,34,1,137,0,892.6820759,,892.6683637,892.6820759,893.682711,893.682711,893.682711,893.682711,893.682711,894.682315,894.682315,895.6343969,x,1,0.9494757,None,participant,1,2024-10-11_11h21.46.104,D6_exp6_MotorSequenceLearning,2024.1.5,None,2024-10-11 11h22.06.475114 +0530
50,c,,,,,34,2,138,2,895.648878,,895.63645,895.648878,896.6490287,896.6490287,896.6490287,896.6490287,896.6490287,897.6494345,897.6494345,898.6171675,c,1,0.9592788,None,participant,1,2024-10-11_11h21.46.104,D6_exp6_MotorSequenceLearning,2024.1.5,None,2024-10-11 11h22.06.475114 +0530
50,c,,,,,34,3,139,2,898.6325239,,898.618909,898.6325239,899.6324781,899.6324781,899.6324781,899.6324781,899.6324781,900.6329023,900.6329023,901.184112,c,1,0.5356062,None,participant,1,2024-10-11_11h21.46.104,D6_exp6_MotorSequenceLearning,2024.1.5,None,2024-10-11 11h22.06.475114 +0530
-150,z,,,,,35,0,140,3,901.1995451,,901.1869093,901.1995451,902.2002489,902.2002489,902.2002489,902.2002489,902.2002489,903.1997088,903.1997088,904.1348861,z,1,0.9211662,None,participant,1,2024-10-11_11h21.46.104,D6_exp6_MotorSequenceLearning,2024.1.5,None,2024-10-11 11h22.06.475114 +0530
50,c,,,,,35,1,141,2,904.1500199,,904.136532,904.1500199,905.1498365,905.1498365,905.1498365,905.1498365,905.1498365,906.1497834,906.1497834,906.968917,c,1,0.8119591,None,participant,1,2024-10-11_11h21.46.104,D6_exp6_MotorSequenceLearning,2024.1.5,None,2024-10-11 11h22.06.475114 +0530
-50,x,,,,,35,2,142,0,906.9834299,,906.9708891,906.9834299,907.9834581,907.9834581,907.9834581,907.9834581,907.9834581,908.9834506,908.9834506,909.5183834,x,1,0.5288702,None,participant,1,2024-10-11_11h21.46.104,D6_exp6_MotorSequenceLearning,2024.1.5,None,2024-10-11 11h22.06.475114 +0530
-50,x,,,,,35,3,143,0,909.5339728,,909.5208517,909.5339728,910.5337745,910.5337745,910.5337745,910.5337745,910.5337745,911.5337834,911.5337834,912.1851119,x,1,0.645058,None,participant,1,2024-10-11_11h21.46.104,D6_exp6_MotorSequenceLearning,2024.1.5,None,2024-10-11 11h22.06.475114 +0530
50,c,,,,,36,0,144,2,912.2009661,,912.1864981,912.2009661,913.2012328,913.2012328,913.2012328,913.2012328,913.2012328,914.200955,914.200955,916.0857371,c,1,1.8688005,None,participant,1,2024-10-11_11h21.46.104,D6_exp6_MotorSequenceLearning,2024.1.5,None,2024-10-11 11h22.06.475114 +0530
150,v,,,,,36,1,145,1,916.1010569,,916.0882323,916.1010569,917.1010729,917.1010729,917.1010729,917.1010729,917.1010729,918.1010568,918.1010568,918.5194367,v,1,0.4038693,None,participant,1,2024-10-11_11h21.46.104,D6_exp6_MotorSequenceLearning,2024.1.5,None,2024-10-11 11h22.06.475114 +0530
-50,x,,,,,36,2,146,0,918.5346655,,918.5220911,918.5346655,919.5347727,919.5347727,919.5347727,919.5347727,919.5347727,920.5346643,920.5346643,921.4197307,x,1,0.8730644,None,participant,1,2024-10-11_11h21.46.104,D6_exp6_MotorSequenceLearning,2024.1.5,None,2024-10-11 11h22.06.475114 +0530
-50,x,,,,,36,3,147,0,921.4349018,,921.4215483,921.4349018,922.4353821,922.4353821,922.4353821,922.4353821,922.4353821,923.4350958,923.4350958,924.220769,x,1,0.7824776,None,participant,1,2024-10-11_11h21.46.104,D6_exp6_MotorSequenceLearning,2024.1.5,None,2024-10-11 11h22.06.475114 +0530
