trials.thisRepN,trials.thisTrialN,trials.thisN,trials.thisIndex,thisRow.t,notes,trial.started,num_distr,Fixation.started,target.started,mouse.started,trial.stopped,mouse.x,mouse.y,mouse.leftButton,mouse.midButton,mouse.rightButton,mouse.time,mouse.clicked_name,participant,session,date,expName,psychopyVersion,frameRate,expStart,
0,0,0,0,0.047788099851459265,,0.00567549979314208,5,0.047788099851459265,0.047788099851459265,0.03459229995496571,1.4397393998224288,[0.12109375],[-0.4453125],[1],[0],[0],[1.404326100135222],[],Final_Ayushi,001,2024-10-04_11h30.02.935,D3_exp5_VisualSearchExperiment,2024.1.5,None,2024-10-04 11h30.17.854151 +0530,
1,0,1,0,1.5220734998583794,,1.4460732999723405,10,1.5220734998583794,1.5220734998583794,0.05590700008906424,3.189581499900669,[0.10026041666666667],[-0.4244791666666667],[1],[0],[0],[1.6882585000712425],['target'],Final_Ayushi,001,2024-10-04_11h30.02.935,D3_exp5_VisualSearchExperiment,2024.1.5,None,2024-10-04 11h30.17.854151 +0530,
2,0,2,0,3.228047000011429,,3.194421699969098,5,3.228047000011429,3.228047000011429,0.022843000013381243,4.757045099977404,[0.2760416666666667],[-0.12369791666666667],[1],[0],[0],[1.5403176001273096],['target'],Final_Ayushi,001,2024-10-04_11h30.02.935,D3_exp5_VisualSearchExperiment,2024.1.5,None,2024-10-04 11h30.17.854151 +0530,
3,0,3,0,4.80825709993951,,4.762088799849153,5,4.80825709993951,4.80825709993951,0.03121170005761087,6.957404599990696,[-0.22786458333333334],[0.024739583333333332],[1],[0],[0],[2.16424630000256],['target'],Final_Ayushi,001,2024-10-04_11h30.02.935,D3_exp5_VisualSearchExperiment,2024.1.5,None,2024-10-04 11h30.17.854151 +0530,
4,0,4,0,7.011486699804664,,6.964288199786097,10,7.011486699804664,7.011486699804664,0.03758360003121197,10.116763999918476,[-0.2669270833333333],[-0.4283854166666667],[1],[0],[0],[3.1158324000425637],['target'],Final_Ayushi,001,2024-10-04_11h30.02.935,D3_exp5_VisualSearchExperiment,2024.1.5,None,2024-10-04 11h30.17.854151 +0530,
5,0,5,0,10.194166499888524,,10.122383699985221,10,10.194166499888524,10.194166499888524,0.051549999974668026,12.638939099851996,[0.15755208333333334],[-0.22395833333333334],[1],[0],[0],[2.465733300196007],[],Final_Ayushi,001,2024-10-04_11h30.02.935,D3_exp5_VisualSearchExperiment,2024.1.5,None,2024-10-04 11h30.17.854151 +0530,
6,0,6,0,12.689808199880645,,12.644921599887311,5,12.689808199880645,12.689808199880645,0.03215560014359653,14.957784399855882,[0.4856770833333333],[-0.3971354166666667],[1],[0],[0],[2.281442299950868],['target'],Final_Ayushi,001,2024-10-04_11h30.02.935,D3_exp5_VisualSearchExperiment,2024.1.5,None,2024-10-04 11h30.17.854151 +0530,
7,0,7,0,14.994136199820787,,14.96208869991824,5,14.994136199820787,14.994136199820787,0.020582800032570958,17.157643100013956,[-0.3072916666666667],[-0.07421875],[1],[0],[0],[2.175337899941951],[],Final_Ayushi,001,2024-10-04_11h30.02.935,D3_exp5_VisualSearchExperiment,2024.1.5,None,2024-10-04 11h30.17.854151 +0530,
8,0,8,0,17.18732179980725,,17.160799599951133,5,17.18732179980725,17.18732179980725,0.018437799997627735,19.107866999926046,[-0.2565104166666667],[0.2942708333333333],[1],[0],[0],[1.928911400027573],['target'],Final_Ayushi,001,2024-10-04_11h30.02.935,D3_exp5_VisualSearchExperiment,2024.1.5,None,2024-10-04 11h30.17.854151 +0530,
9,0,9,0,19.14661129983142,,19.11276049981825,5,19.14661129983142,19.14661129983142,0.022571800043806434,20.25876329978928,[-0.3203125],[0.3138020833333333],[1],[0],[0],[1.123765999916941],['target'],Final_Ayushi,001,2024-10-04_11h30.02.935,D3_exp5_VisualSearchExperiment,2024.1.5,None,2024-10-04 11h30.17.854151 +0530,
10,0,10,0,20.3103858998511,,20.26596439979039,5,20.3103858998511,20.3103858998511,0.03008519997820258,21.825290499953553,[0.13671875],[-0.1171875],[1],[0],[0],[1.5300573001150042],['target'],Final_Ayushi,001,2024-10-04_11h30.02.935,D3_exp5_VisualSearchExperiment,2024.1.5,None,2024-10-04 11h30.17.854151 +0530,
11,0,11,0,21.868188199819997,,21.831395499873906,5,21.868188199819997,21.868188199819997,0.02405539993196726,23.30918009998277,[-0.20833333333333334],[-0.05078125],[1],[0],[0],[1.4543302000965923],['target'],Final_Ayushi,001,2024-10-04_11h30.02.935,D3_exp5_VisualSearchExperiment,2024.1.5,None,2024-10-04 11h30.17.854151 +0530,
12,0,12,0,23.370620999950916,,23.315144499996677,10,23.370620999950916,23.370620999950916,0.038717699935659766,24.588439099956304,[0.046875],[0.09375],[1],[0],[0],[1.2353865997865796],['target'],Final_Ayushi,001,2024-10-04_11h30.02.935,D3_exp5_VisualSearchExperiment,2024.1.5,None,2024-10-04 11h30.17.854151 +0530,
13,0,13,0,24.63667509984225,,24.593860099790618,5,24.63667509984225,24.63667509984225,0.03143360000103712,26.52550320001319,[-0.4244791666666667],[0.3776041666666667],[1],[0],[0],[1.9009316000156105],['target'],Final_Ayushi,001,2024-10-04_11h30.02.935,D3_exp5_VisualSearchExperiment,2024.1.5,None,2024-10-04 11h30.17.854151 +0530,
14,0,14,0,26.576038099825382,,26.53126289998181,5,26.576038099825382,26.576038099825382,0.029518199851736426,29.392654299968854,[0.4453125],[-0.38671875],[1],[0],[0],[2.8329872000031173],['target'],Final_Ayushi,001,2024-10-04_11h30.02.935,D3_exp5_VisualSearchExperiment,2024.1.5,None,2024-10-04 11h30.17.854151 +0530,
15,0,15,0,29.434300099965185,,29.39800909999758,5,29.434300099965185,29.434300099965185,0.025649600196629763,31.126349999802187,[0.296875],[0.12239583333333333],[1],[0],[0],[1.7034730000887066],['target'],Final_Ayushi,001,2024-10-04_11h30.02.935,D3_exp5_VisualSearchExperiment,2024.1.5,None,2024-10-04 11h30.17.854151 +0530,
16,0,16,0,31.156277499860153,,31.130323899909854,5,31.156277499860153,31.156277499860153,0.01781729981303215,32.46083499980159,[0.4752604166666667],[0.3776041666666667],[1],[0],[0],[1.3129857999738306],['target'],Final_Ayushi,001,2024-10-04_11h30.02.935,D3_exp5_VisualSearchExperiment,2024.1.5,None,2024-10-04 11h30.17.854151 +0530,
17,0,17,0,32.512729599839076,,32.466669799992815,5,32.512729599839076,32.512729599839076,0.029576299944892526,34.526883699931204,[-0.265625],[-0.359375],[1],[0],[0],[2.031154700089246],['target'],Final_Ayushi,001,2024-10-04_11h30.02.935,D3_exp5_VisualSearchExperiment,2024.1.5,None,2024-10-04 11h30.17.854151 +0530,
18,0,18,0,34.57267569983378,,34.53471229993738,5,34.57267569983378,34.57267569983378,0.030547100119292736,36.429105799878016,[-0.3997395833333333],[0.4166666666666667],[1],[0],[0],[1.8653172999620438],['target'],Final_Ayushi,001,2024-10-04_11h30.02.935,D3_exp5_VisualSearchExperiment,2024.1.5,None,2024-10-04 11h30.17.854151 +0530,
19,0,19,0,36.47341399989091,,36.44062929996289,5,36.47341399989091,36.47341399989091,0.02752220002003014,38.23532939981669,[-0.3854166666666667],[-0.09244791666666667],[1],[0],[0],[1.7692817999050021],['target'],Final_Ayushi,001,2024-10-04_11h30.02.935,D3_exp5_VisualSearchExperiment,2024.1.5,None,2024-10-04 11h30.17.854151 +0530,
20,0,20,0,38.31029439996928,,38.24237439990975,10,38.31029439996928,38.31029439996928,0.057153600035235286,40.05760149983689,[-0.5026041666666666],[-0.13932291666666666],[1],[0],[0],[1.7595546001102775],['target'],Final_Ayushi,001,2024-10-04_11h30.02.935,D3_exp5_VisualSearchExperiment,2024.1.5,None,2024-10-04 11h30.17.854151 +0530,
21,0,21,0,40.09027459984645,,40.063403399894014,5,40.09027459984645,40.09027459984645,0.020593099994584918,41.3608293000143,[-0.022135416666666668],[0.3177083333333333],[1],[0],[0],[1.2773396999109536],['target'],Final_Ayushi,001,2024-10-04_11h30.02.935,D3_exp5_VisualSearchExperiment,2024.1.5,None,2024-10-04 11h30.17.854151 +0530,
22,0,22,0,41.443092399975285,,41.366403199965134,10,41.443092399975285,41.443092399975285,0.05504249990917742,43.3154998999089,[-0.203125],[-0.109375],[1],[0],[0],[1.8945454999338835],['target'],Final_Ayushi,001,2024-10-04_11h30.02.935,D3_exp5_VisualSearchExperiment,2024.1.5,None,2024-10-04 11h30.17.854151 +0530,
23,0,23,0,43.35786989983171,,43.321390099823475,5,43.35786989983171,43.35786989983171,0.027068099938333035,44.6946596999187,[-0.06770833333333333],[-0.1796875],[1],[0],[0],[1.347053000004962],['target'],Final_Ayushi,001,2024-10-04_11h30.02.935,D3_exp5_VisualSearchExperiment,2024.1.5,None,2024-10-04 11h30.17.854151 +0530,
24,0,24,0,44.7494428998325,,44.70220489986241,5,44.7494428998325,44.7494428998325,0.032341800164431334,46.745105399983004,[0.4635416666666667],[-0.4557291666666667],[1],[0],[0],[2.0114438000600785],['target'],Final_Ayushi,001,2024-10-04_11h30.02.935,D3_exp5_VisualSearchExperiment,2024.1.5,None,2024-10-04 11h30.17.854151 +0530,
25,0,25,0,46.7996528998483,,46.7511944998987,5,46.7996528998483,46.7996528998483,0.033993100048974156,48.328371400013566,[-0.15234375],[-0.16015625],[1],[0],[0],[1.543723199982196],['target'],Final_Ayushi,001,2024-10-04_11h30.02.935,D3_exp5_VisualSearchExperiment,2024.1.5,None,2024-10-04 11h30.17.854151 +0530,
26,0,26,0,48.415427499916404,,48.33517419989221,10,48.415427499916404,48.415427499916404,0.061991500202566385,49.73904139990918,[-0.3203125],[-0.23307291666666666],[1],[0],[0],[1.3427508000750095],['target'],Final_Ayushi,001,2024-10-04_11h30.02.935,D3_exp5_VisualSearchExperiment,2024.1.5,None,2024-10-04 11h30.17.854151 +0530,
27,0,27,0,49.81922239996493,,49.74629979999736,10,49.81922239996493,49.81922239996493,0.05303970002569258,52.402268199948594,[0.3684895833333333],[0.4557291666666667],[1],[0],[0],[2.6037073000334203],['target'],Final_Ayushi,001,2024-10-04_11h30.02.935,D3_exp5_VisualSearchExperiment,2024.1.5,None,2024-10-04 11h30.17.854151 +0530,
28,0,28,0,52.47216839995235,,52.40852539986372,10,52.47216839995235,52.47216839995235,0.04947359999641776,54.59547989978455,[-0.3815104166666667],[-0.032552083333333336],[1],[0],[0],[2.1383628000039607],['target'],Final_Ayushi,001,2024-10-04_11h30.02.935,D3_exp5_VisualSearchExperiment,2024.1.5,None,2024-10-04 11h30.17.854151 +0530,
29,0,29,0,54.6473197999876,,54.59851859998889,10,54.6473197999876,54.6473197999876,0.03455219999887049,55.955313300015405,[-0.05078125],[-0.13151041666666666],[1],[0],[0],[1.3223212999291718],['target'],Final_Ayushi,001,2024-10-04_11h30.02.935,D3_exp5_VisualSearchExperiment,2024.1.5,None,2024-10-04 11h30.17.854151 +0530,
30,0,30,0,56.0182015998289,,55.96205689990893,10,56.0182015998289,56.0182015998289,0.039192500058561563,58.318322899984196,[0.37109375],[-0.4765625],[1],[0],[0],[2.317886200034991],['target'],Final_Ayushi,001,2024-10-04_11h30.02.935,D3_exp5_VisualSearchExperiment,2024.1.5,None,2024-10-04 11h30.17.854151 +0530,
31,0,31,0,58.38740869984031,,58.324539799941704,10,58.38740869984031,58.38740869984031,0.04742499999701977,59.8321276998613,[0.09635416666666667],[0.2994791666666667],[1],[0],[0],[1.4610615000128746],['target'],Final_Ayushi,001,2024-10-04_11h30.02.935,D3_exp5_VisualSearchExperiment,2024.1.5,None,2024-10-04 11h30.17.854151 +0530,
32,0,32,0,59.87850999995135,,59.83507049991749,10,59.87850999995135,59.87850999995135,0.031241799937561154,62.162589999847114,[0.3723958333333333],[-0.23046875],[1],[0],[0],[2.2963753000367433],['target'],Final_Ayushi,001,2024-10-04_11h30.02.935,D3_exp5_VisualSearchExperiment,2024.1.5,None,2024-10-04 11h30.17.854151 +0530,
33,0,33,0,62.22754009999335,,62.16581289982423,10,62.22754009999335,62.22754009999335,0.040700600016862154,65.87935919989832,[0.24609375],[-0.4114583333333333],[1],[0],[0],[3.6731201999355108],['target'],Final_Ayushi,001,2024-10-04_11h30.02.935,D3_exp5_VisualSearchExperiment,2024.1.5,None,2024-10-04 11h30.17.854151 +0530,
34,0,34,0,65.9463268998079,,65.88250399986282,10,65.9463268998079,65.9463268998079,0.042740700067952275,69.31457960000262,[0.08203125],[0.390625],[1],[0],[0],[3.3895088001154363],['target'],Final_Ayushi,001,2024-10-04_11h30.02.935,D3_exp5_VisualSearchExperiment,2024.1.5,None,2024-10-04 11h30.17.854151 +0530,
35,0,35,0,69.34864289988764,,69.32125279982574,5,69.34864289988764,69.34864289988764,0.01954949996434152,71.08059609984048,[0.018229166666666668],[-0.3268229166666667],[1],[0],[0],[1.7408992999698967],['target'],Final_Ayushi,001,2024-10-04_11h30.02.935,D3_exp5_VisualSearchExperiment,2024.1.5,None,2024-10-04 11h30.17.854151 +0530,
36,0,36,0,71.10929849999957,,71.08540819981135,5,71.10929849999957,71.10929849999957,0.01758360001258552,73.08150609978475,[0.0234375],[-0.19010416666666666],[1],[0],[0],[1.9788261000066996],['target'],Final_Ayushi,001,2024-10-04_11h30.02.935,D3_exp5_VisualSearchExperiment,2024.1.5,None,2024-10-04 11h30.17.854151 +0530,
37,0,37,0,73.11327049997635,,73.08724099979736,5,73.11327049997635,73.11327049997635,0.019311900017783046,75.04736169986427,[-0.24869791666666666],[-0.4296875],[1],[0],[0],[1.94154390017502],['target'],Final_Ayushi,001,2024-10-04_11h30.02.935,D3_exp5_VisualSearchExperiment,2024.1.5,None,2024-10-04 11h30.17.854151 +0530,
38,0,38,0,75.07857759995386,,75.05078569985926,5,75.07857759995386,75.07857759995386,0.019893900025635958,77.13185269990936,[-0.23697916666666666],[-0.2578125],[1],[0],[0],[2.0606831000186503],['target'],Final_Ayushi,001,2024-10-04_11h30.02.935,D3_exp5_VisualSearchExperiment,2024.1.5,None,2024-10-04 11h30.17.854151 +0530,
39,0,39,0,77.16006519994698,,77.13580729998648,5,77.16006519994698,77.16006519994698,0.017003600019961596,79.06509329983965,[0.4075520833333333],[-0.1171875],[1],[0],[0],[1.9124207999557257],['target'],Final_Ayushi,001,2024-10-04_11h30.02.935,D3_exp5_VisualSearchExperiment,2024.1.5,None,2024-10-04 11h30.17.854151 +0530,
40,0,40,0,79.10720099997707,,79.07016869983636,5,79.10720099997707,79.10720099997707,0.022017800016328692,81.0644540998619,[-0.1484375],[-0.3502604166666667],[1],[0],[0],[1.972931600175798],['target'],Final_Ayushi,001,2024-10-04_11h30.02.935,D3_exp5_VisualSearchExperiment,2024.1.5,None,2024-10-04 11h30.17.854151 +0530,
41,0,41,0,81.14974019979127,,81.06923009990714,10,81.14974019979127,81.14974019979127,0.05256019998341799,83.14815079979599,[0.3151041666666667],[0.23307291666666666],[1],[0],[0],[2.026752500096336],['target'],Final_Ayushi,001,2024-10-04_11h30.02.935,D3_exp5_VisualSearchExperiment,2024.1.5,None,2024-10-04 11h30.17.854151 +0530,
42,0,42,0,83.20008649979718,,83.1529532999266,10,83.20008649979718,83.20008649979718,0.03459190018475056,84.80148909986019,[-0.03515625],[0.0859375],[1],[0],[0],[1.6142530001234263],['target'],Final_Ayushi,001,2024-10-04_11h30.02.935,D3_exp5_VisualSearchExperiment,2024.1.5,None,2024-10-04 11h30.17.854151 +0530,
43,0,43,0,84.86266529979184,,84.80451749986969,10,84.86266529979184,84.86266529979184,0.039968600030988455,86.78637230000459,[-0.037760416666666664],[-0.43359375],[1],[0],[0],[1.9419271999504417],['target'],Final_Ayushi,001,2024-10-04_11h30.02.935,D3_exp5_VisualSearchExperiment,2024.1.5,None,2024-10-04 11h30.17.854151 +0530,
44,0,44,0,86.8711808999069,,86.7913850999903,10,86.8711808999069,86.8711808999069,0.056769900023937225,88.84868890000507,[-0.41015625],[0.14453125],[1],[0],[0],[2.001321699935943],['target'],Final_Ayushi,001,2024-10-04_11h30.02.935,D3_exp5_VisualSearchExperiment,2024.1.5,None,2024-10-04 11h30.17.854151 +0530,
45,0,45,0,88.87932830001228,,88.85178889986128,5,88.87932830001228,88.87932830001228,0.01839570002630353,90.3327457997948,[-0.09505208333333333],[0.3828125],[1],[0],[0],[1.4627284000162035],['target'],Final_Ayushi,001,2024-10-04_11h30.02.935,D3_exp5_VisualSearchExperiment,2024.1.5,None,2024-10-04 11h30.17.854151 +0530,
46,0,46,0,90.38363919989206,,90.33722029998899,10,90.38363919989206,90.38363919989206,0.03157269977964461,92.81539479992352,[0.3919270833333333],[-0.4479166666666667],[1],[0],[0],[2.447092500049621],['target'],Final_Ayushi,001,2024-10-04_11h30.02.935,D3_exp5_VisualSearchExperiment,2024.1.5,None,2024-10-04 11h30.17.854151 +0530,
47,0,47,0,92.8456158998888,,92.81906999996863,5,92.8456158998888,92.8456158998888,0.018625800032168627,94.65013600001112,[0.2786458333333333],[-0.19010416666666666],[1],[0],[0],[1.812821300001815],['target'],Final_Ayushi,001,2024-10-04_11h30.02.935,D3_exp5_VisualSearchExperiment,2024.1.5,None,2024-10-04 11h30.17.854151 +0530,
48,0,48,0,94.69759779982269,,94.65415439987555,10,94.69759779982269,94.69759779982269,0.03057890012860298,96.90871589980088,[0.3854166666666667],[0.033854166666666664],[1],[0],[0],[2.224292099941522],['target'],Final_Ayushi,001,2024-10-04_11h30.02.935,D3_exp5_VisualSearchExperiment,2024.1.5,None,2024-10-04 11h30.17.854151 +0530,
49,0,49,0,96.97029409999959,,96.91552969999611,10,96.97029409999959,96.97029409999959,0.04074460011906922,99.08208919991739,[0.23307291666666666],[0.47265625],[1],[0],[0],[2.1265281999949366],['target'],Final_Ayushi,001,2024-10-04_11h30.02.935,D3_exp5_VisualSearchExperiment,2024.1.5,None,2024-10-04 11h30.17.854151 +0530,
50,0,50,0,99.17057129996829,,99.08987539983355,10,99.17057129996829,99.17057129996829,0.05784020014107227,101.73327640001662,[0.2916666666666667],[-0.13411458333333334],[1],[0],[0],[2.587193999905139],['target'],Final_Ayushi,001,2024-10-04_11h30.02.935,D3_exp5_VisualSearchExperiment,2024.1.5,None,2024-10-04 11h30.17.854151 +0530,
51,0,51,0,101.7804444998037,,101.73677219985984,10,101.7804444998037,101.7804444998037,0.031618400011211634,104.00957319978625,[-0.4518229166666667],[-0.041666666666666664],[1],[0],[0],[2.241246300050989],['target'],Final_Ayushi,001,2024-10-04_11h30.02.935,D3_exp5_VisualSearchExperiment,2024.1.5,None,2024-10-04 11h30.17.854151 +0530,
52,0,52,0,104.04913509986363,,104.0157299998682,5,104.04913509986363,104.04913509986363,0.02650310005992651,105.53493699990213,[-0.3971354166666667],[-0.37109375],[1],[0],[0],[1.4932850000914186],['target'],Final_Ayushi,001,2024-10-04_11h30.02.935,D3_exp5_VisualSearchExperiment,2024.1.5,None,2024-10-04 11h30.17.854151 +0530,
53,0,53,0,105.62203139998019,,105.54110099980608,10,105.62203139998019,105.62203139998019,0.057764200028032064,107.74928559991531,[-0.3307291666666667],[0.3190104166666667],[1],[0],[0],[2.1510177000891417],['target'],Final_Ayushi,001,2024-10-04_11h30.02.935,D3_exp5_VisualSearchExperiment,2024.1.5,None,2024-10-04 11h30.17.854151 +0530,
54,0,54,0,107.83696549991146,,107.75516559998505,10,107.83696549991146,107.83696549991146,0.058740700129419565,110.56761149992235,[0.35546875],[-0.2942708333333333],[1],[0],[0],[2.7546462998725474],['target'],Final_Ayushi,001,2024-10-04_11h30.02.935,D3_exp5_VisualSearchExperiment,2024.1.5,None,2024-10-04 11h30.17.854151 +0530,
55,0,55,0,110.6302264998667,,110.57072199997492,10,110.6302264998667,110.6302264998667,0.037515100091695786,113.04812549985945,[0.15104166666666666],[0.4934895833333333],[1],[0],[0],[2.4399100998416543],['target'],Final_Ayushi,001,2024-10-04_11h30.02.935,D3_exp5_VisualSearchExperiment,2024.1.5,None,2024-10-04 11h30.17.854151 +0530,
56,0,56,0,113.11391699989326,,113.05460169981234,10,113.11391699989326,113.11391699989326,0.04830899997614324,115.36779449996538,[-0.32421875],[-0.18098958333333334],[1],[0],[0],[2.2658987001050264],['target'],Final_Ayushi,001,2024-10-04_11h30.02.935,D3_exp5_VisualSearchExperiment,2024.1.5,None,2024-10-04 11h30.17.854151 +0530,
57,0,57,0,115.39677799982019,,115.37158279982395,5,115.39677799982019,115.39677799982019,0.017129499930888414,117.50207439996302,[0.3828125],[-0.08072916666666667],[1],[0],[0],[2.1134128000121564],['target'],Final_Ayushi,001,2024-10-04_11h30.02.935,D3_exp5_VisualSearchExperiment,2024.1.5,None,2024-10-04 11h30.17.854151 +0530,
58,0,58,0,117.59656289988197,,117.50908889994025,10,117.59656289988197,117.59656289988197,0.06199460010975599,119.29978049988858,[0.2721354166666667],[0.24088541666666666],[1],[0],[0],[1.7294141000602394],['target'],Final_Ayushi,001,2024-10-04_11h30.02.935,D3_exp5_VisualSearchExperiment,2024.1.5,None,2024-10-04 11h30.17.854151 +0530,
59,0,59,0,119.37432719999924,,119.3050048998557,10,119.37432719999924,119.37432719999924,0.048236999893561006,121.49720230000094,[0.05078125],[0.4661458333333333],[1],[0],[0],[2.1444488998968154],['target'],Final_Ayushi,001,2024-10-04_11h30.02.935,D3_exp5_VisualSearchExperiment,2024.1.5,None,2024-10-04 11h30.17.854151 +0530,
60,0,60,0,121.55569639988244,,121.50411370000802,10,121.55569639988244,121.55569639988244,0.039017400005832314,124.4853856000118,[-0.4440104166666667],[-0.40234375],[1],[0],[0],[2.9432572000660002],['target'],Final_Ayushi,001,2024-10-04_11h30.02.935,D3_exp5_VisualSearchExperiment,2024.1.5,None,2024-10-04 11h30.17.854151 +0530,
61,0,61,0,124.53408059990034,,124.48893059999682,10,124.53408059990034,124.53408059990034,0.030600300058722496,126.08804299985059,[0.09244791666666667],[0.2578125],[1],[0],[0],[1.56884970003739],['target'],Final_Ayushi,001,2024-10-04_11h30.02.935,D3_exp5_VisualSearchExperiment,2024.1.5,None,2024-10-04 11h30.17.854151 +0530,
62,0,62,0,126.11836969992146,,126.09259909996763,5,126.11836969992146,126.11836969992146,0.016566399950534105,127.66972229979001,[0.20963541666666666],[-0.2265625],[1],[0],[0],[1.5616864999756217],['target'],Final_Ayushi,001,2024-10-04_11h30.02.935,D3_exp5_VisualSearchExperiment,2024.1.5,None,2024-10-04 11h30.17.854151 +0530,
63,0,63,0,127.7199796999339,,127.67511689988896,5,127.7199796999339,127.7199796999339,0.029771700035780668,129.70288609992713,[0.11067708333333333],[-0.2760416666666667],[1],[0],[0],[1.9988266001455486],['target'],Final_Ayushi,001,2024-10-04_11h30.02.935,D3_exp5_VisualSearchExperiment,2024.1.5,None,2024-10-04 11h30.17.854151 +0530,
64,0,64,0,129.73431199998595,,129.7080756998621,5,129.73431199998595,129.73431199998595,0.0187115001026541,131.1524665998295,[-0.0703125],[0.018229166666666668],[1],[0],[0],[1.4269977000076324],['target'],Final_Ayushi,001,2024-10-04_11h30.02.935,D3_exp5_VisualSearchExperiment,2024.1.5,None,2024-10-04 11h30.17.854151 +0530,
65,0,65,0,131.18052559997886,,131.15613419981673,5,131.18052559997886,131.18052559997886,0.017083799932152033,132.9701677998528,[0.0390625],[0.3893229166666667],[1],[0],[0],[1.7972336001694202],['target'],Final_Ayushi,001,2024-10-04_11h30.02.935,D3_exp5_VisualSearchExperiment,2024.1.5,None,2024-10-04 11h30.17.854151 +0530,
66,0,66,0,133.04404439986683,,132.97676519979723,10,133.04404439986683,133.04404439986683,0.053594799945130944,134.74384479993023,[-0.4856770833333333],[0.0859375],[1],[0],[0],[1.7142108001280576],['target'],Final_Ayushi,001,2024-10-04_11h30.02.935,D3_exp5_VisualSearchExperiment,2024.1.5,None,2024-10-04 11h30.17.854151 +0530,
67,0,67,0,134.85843689995818,,134.74753339984454,10,134.85843689995818,134.85843689995818,0.09758519986644387,137.30382799985819,[-0.15104166666666666],[0.4986979166666667],[1],[0],[0],[2.4591262999456376],['target'],Final_Ayushi,001,2024-10-04_11h30.02.935,D3_exp5_VisualSearchExperiment,2024.1.5,None,2024-10-04 11h30.17.854151 +0530,
68,0,68,0,137.3315372997895,,137.30676259985194,5,137.3315372997895,137.3315372997895,0.01653749984689057,139.30467819981277,[0.2513020833333333],[-0.2786458333333333],[1],[0],[0],[1.9812219000887126],['target'],Final_Ayushi,001,2024-10-04_11h30.02.935,D3_exp5_VisualSearchExperiment,2024.1.5,None,2024-10-04 11h30.17.854151 +0530,
69,0,69,0,139.35912979999557,,139.312356099952,5,139.35912979999557,139.35912979999557,0.03138340008445084,140.98740969994105,[0.4557291666666667],[-0.03125],[1],[0],[0],[1.644932199968025],['target'],Final_Ayushi,001,2024-10-04_11h30.02.935,D3_exp5_VisualSearchExperiment,2024.1.5,None,2024-10-04 11h30.17.854151 +0530,
70,0,70,0,141.07361989980564,,140.99231439991854,10,141.07361989980564,141.07361989980564,0.054517799988389015,142.37087639980018,[0.2552083333333333],[-0.14192708333333334],[1],[0],[0],[1.3247352000325918],['target'],Final_Ayushi,001,2024-10-04_11h30.02.935,D3_exp5_VisualSearchExperiment,2024.1.5,None,2024-10-04 11h30.17.854151 +0530,
71,0,71,0,142.43876529997215,,142.3738126999233,10,142.43876529997215,142.43876529997215,0.04010649980045855,144.27157079987228,[0.23177083333333334],[0.3294270833333333],[1],[0],[0],[1.8573700999841094],['target'],Final_Ayushi,001,2024-10-04_11h30.02.935,D3_exp5_VisualSearchExperiment,2024.1.5,None,2024-10-04 11h30.17.854151 +0530,
72,0,72,0,144.31709449994378,,144.27889669989236,5,144.31709449994378,144.31709449994378,0.025602299952879548,145.68774709990248,[0.3424479166666667],[0.1640625],[1],[0],[0],[1.3840358001179993],['target'],Final_Ayushi,001,2024-10-04_11h30.02.935,D3_exp5_VisualSearchExperiment,2024.1.5,None,2024-10-04 11h30.17.854151 +0530,
73,0,73,0,145.7651465998497,,145.692844199948,10,145.7651465998497,145.7651465998497,0.05571920005604625,147.00983219989575,[0.18619791666666666],[-0.12760416666666666],[1],[0],[0],[1.2617529002018273],['target'],Final_Ayushi,001,2024-10-04_11h30.02.935,D3_exp5_VisualSearchExperiment,2024.1.5,None,2024-10-04 11h30.17.854151 +0530,
74,0,74,0,147.05810019979253,,147.01685509993695,5,147.05810019979253,147.05810019979253,0.030543999979272485,148.72172729996964,[-0.15104166666666666],[-0.16796875],[1],[0],[0],[1.675606400007382],['target'],Final_Ayushi,001,2024-10-04_11h30.02.935,D3_exp5_VisualSearchExperiment,2024.1.5,None,2024-10-04 11h30.17.854151 +0530,
75,0,75,0,148.75623589986935,,148.72480659978464,5,148.75623589986935,148.75623589986935,0.020033200038596988,150.12222549994476,[0.4440104166666667],[0.24869791666666666],[1],[0],[0],[1.3772024998907],['target'],Final_Ayushi,001,2024-10-04_11h30.02.935,D3_exp5_VisualSearchExperiment,2024.1.5,None,2024-10-04 11h30.17.854151 +0530,
76,0,76,0,150.20994440000504,,150.12952760001644,10,150.20994440000504,150.20994440000504,0.05548080010339618,151.97124889981933,[-0.04296875],[0.3294270833333333],[1],[0],[0],[1.7875334999989718],['target'],Final_Ayushi,001,2024-10-04_11h30.02.935,D3_exp5_VisualSearchExperiment,2024.1.5,None,2024-10-04 11h30.17.854151 +0530,
77,0,77,0,152.0711377998814,,151.97421049978584,10,152.0711377998814,152.0711377998814,0.0828712999355048,153.53913039993495,[-0.21484375],[0.22135416666666666],[1],[0],[0],[1.4821170000359416],['target'],Final_Ayushi,001,2024-10-04_11h30.02.935,D3_exp5_VisualSearchExperiment,2024.1.5,None,2024-10-04 11h30.17.854151 +0530,
78,0,78,0,153.57247469993308,,153.54473520000465,5,153.57247469993308,153.57247469993308,0.02019259985536337,155.10648139985278,[-0.2578125],[-0.13151041666666666],[1],[0],[0],[1.5420411999803036],['target'],Final_Ayushi,001,2024-10-04_11h30.02.935,D3_exp5_VisualSearchExperiment,2024.1.5,None,2024-10-04 11h30.17.854151 +0530,
79,0,79,0,155.18324119993486,,155.11258669989184,10,155.18324119993486,155.18324119993486,0.05478370003402233,156.70539179979824,[0.23567708333333334],[-0.2682291666666667],[1],[0],[0],[1.538941100006923],['target'],Final_Ayushi,001,2024-10-04_11h30.02.935,D3_exp5_VisualSearchExperiment,2024.1.5,None,2024-10-04 11h30.17.854151 +0530,
80,0,80,0,156.73246459988877,,156.70873949979432,5,156.73246459988877,156.73246459988877,0.016611600061878562,158.84025399992242,[0.2721354166666667],[-0.07942708333333333],[1],[0],[0],[2.1149134999141097],['target'],Final_Ayushi,001,2024-10-04_11h30.02.935,D3_exp5_VisualSearchExperiment,2024.1.5,None,2024-10-04 11h30.17.854151 +0530,
81,0,81,0,158.9286369998008,,158.8481112997979,10,158.9286369998008,158.9286369998008,0.05875730002298951,160.85702569992281,[-0.2643229166666667],[0.09244791666666667],[1],[0],[0],[1.9513809999916703],['target'],Final_Ayushi,001,2024-10-04_11h30.02.935,D3_exp5_VisualSearchExperiment,2024.1.5,None,2024-10-04 11h30.17.854151 +0530,
82,0,82,0,160.9264822998084,,160.8638961999677,10,160.9264822998084,160.9264822998084,0.0480617000721395,163.33952519996092,[0.18098958333333334],[0.3190104166666667],[1],[0],[0],[2.4285428000148386],['target'],Final_Ayushi,001,2024-10-04_11h30.02.935,D3_exp5_VisualSearchExperiment,2024.1.5,None,2024-10-04 11h30.17.854151 +0530,
83,0,83,0,163.41611549980007,,163.34340589982457,10,163.41611549980007,163.41611549980007,0.04348260001279414,165.6444879998453,[-0.16145833333333334],[-0.3971354166666667],[1],[0],[0],[2.257901299977675],['target'],Final_Ayushi,001,2024-10-04_11h30.02.935,D3_exp5_VisualSearchExperiment,2024.1.5,None,2024-10-04 11h30.17.854151 +0530,
84,0,84,0,165.7185494999867,,165.65218789991923,10,165.7185494999867,165.7185494999867,0.04894950008019805,167.6866150998976,[0.21223958333333334],[-0.12760416666666666],[1],[0],[0],[1.9866925000678748],['target'],Final_Ayushi,001,2024-10-04_11h30.02.935,D3_exp5_VisualSearchExperiment,2024.1.5,None,2024-10-04 11h30.17.854151 +0530,
85,0,85,0,167.72498259996064,,167.69279539980926,5,167.72498259996064,167.72498259996064,0.02187000005505979,169.65760269993916,[-0.07942708333333333],[-0.24348958333333334],[1],[0],[0],[1.9439534998964518],[],Final_Ayushi,001,2024-10-04_11h30.02.935,D3_exp5_VisualSearchExperiment,2024.1.5,None,2024-10-04 11h30.17.854151 +0530,
86,0,86,0,169.69115430000238,,169.6615990998689,5,169.69115430000238,169.69115430000238,0.019407300045713782,171.10676889983006,[0.3763020833333333],[0.24739583333333334],[1],[0],[0],[1.4262381000444293],['target'],Final_Ayushi,001,2024-10-04_11h30.02.935,D3_exp5_VisualSearchExperiment,2024.1.5,None,2024-10-04 11h30.17.854151 +0530,
87,0,87,0,171.14013269986026,,171.11087049986236,5,171.14013269986026,171.14013269986026,0.01943450001999736,172.62423949991353,[0.36328125],[0.020833333333333332],[1],[0],[0],[1.4942689999006689],['target'],Final_Ayushi,001,2024-10-04_11h30.02.935,D3_exp5_VisualSearchExperiment,2024.1.5,None,2024-10-04 11h30.17.854151 +0530,
88,0,88,0,172.6713189999573,,172.62960819993168,5,172.6713189999573,172.6713189999573,0.025508299935609102,174.89094209996983,[-0.2838541666666667],[-0.19791666666666666],[1],[0],[0],[2.2363439998589456],['target'],Final_Ayushi,001,2024-10-04_11h30.02.935,D3_exp5_VisualSearchExperiment,2024.1.5,None,2024-10-04 11h30.17.854151 +0530,
89,0,89,0,174.92936079995707,,174.89579009986483,5,174.92936079995707,174.92936079995707,0.021216199966147542,177.30918829981238,[0.22395833333333334],[0.34375],[1],[0],[0],[2.3925138998311013],[],Final_Ayushi,001,2024-10-04_11h30.02.935,D3_exp5_VisualSearchExperiment,2024.1.5,None,2024-10-04 11h30.17.854151 +0530,
90,0,90,0,177.36478499998339,,177.31619809987023,5,177.36478499998339,177.36478499998339,0.03340859990566969,179.04125559981912,[0.359375],[-0.045572916666666664],[1],[0],[0],[1.6925473001319915],['target'],Final_Ayushi,001,2024-10-04_11h30.02.935,D3_exp5_VisualSearchExperiment,2024.1.5,None,2024-10-04 11h30.17.854151 +0530,
91,0,91,0,179.08911349996924,,179.04717629984953,5,179.08911349996924,179.08911349996924,0.02603329997509718,180.67482429998927,[0.2604166666666667],[-0.4153645833333333],[1],[0],[0],[1.602453500032425],['target'],Final_Ayushi,001,2024-10-04_11h30.02.935,D3_exp5_VisualSearchExperiment,2024.1.5,None,2024-10-04 11h30.17.854151 +0530,
92,0,92,0,180.72212829999626,,180.68064049980603,5,180.72212829999626,180.72212829999626,0.025867899879813194,182.17480569984764,[0.3151041666666667],[0.23177083333333334],[1],[0],[0],[1.4693267999682575],[],Final_Ayushi,001,2024-10-04_11h30.02.935,D3_exp5_VisualSearchExperiment,2024.1.5,None,2024-10-04 11h30.17.854151 +0530,
93,0,93,0,182.2578636999242,,182.1796092998702,10,182.2578636999242,182.2578636999242,0.05097290012054145,184.02467299997807,[-0.1484375],[-0.049479166666666664],[1],[0],[0],[1.7948014000430703],['target'],Final_Ayushi,001,2024-10-04_11h30.02.935,D3_exp5_VisualSearchExperiment,2024.1.5,None,2024-10-04 11h30.17.854151 +0530,
94,0,94,0,184.0510406999383,,184.02809139993042,5,184.0510406999383,184.0510406999383,0.015117399860173464,186.04231389984488,[-0.41796875],[-0.2799479166666667],[1],[0],[0],[1.999244200065732],['target'],Final_Ayushi,001,2024-10-04_11h30.02.935,D3_exp5_VisualSearchExperiment,2024.1.5,None,2024-10-04 11h30.17.854151 +0530,
95,0,95,0,186.0849513998255,,186.0475750998594,5,186.0849513998255,186.0849513998255,0.022846199804916978,187.27757359994575,[-0.3203125],[0.2825520833333333],[1],[0],[0],[1.2072478998452425],['target'],Final_Ayushi,001,2024-10-04_11h30.02.935,D3_exp5_VisualSearchExperiment,2024.1.5,None,2024-10-04 11h30.17.854151 +0530,
96,0,96,0,187.36752599989995,,187.28496279986575,10,187.36752599989995,187.36752599989995,0.06371839996427298,187.50295039988123,[-0.3203125],[0.2825520833333333],[1],[0],[0],[0.15527380001731217],[],Final_Ayushi,001,2024-10-04_11h30.02.935,D3_exp5_VisualSearchExperiment,2024.1.5,None,2024-10-04 11h30.17.854151 +0530,
97,0,97,0,187.57280099997297,,187.50607849983498,10,187.57280099997297,187.57280099997297,0.046118499943986535,189.58923149993643,[0.3463541666666667],[-0.16145833333333334],[1],[0],[0],[2.037046399898827],['target'],Final_Ayushi,001,2024-10-04_11h30.02.935,D3_exp5_VisualSearchExperiment,2024.1.5,None,2024-10-04 11h30.17.854151 +0530,
98,0,98,0,189.6580672999844,,189.59590219985694,10,189.6580672999844,189.6580672999844,0.04559900006279349,190.89764250000007,[0.33203125],[0.22526041666666666],[1],[0],[0],[1.25703030009754],[],Final_Ayushi,001,2024-10-04_11h30.02.935,D3_exp5_VisualSearchExperiment,2024.1.5,None,2024-10-04 11h30.17.854151 +0530,
99,0,99,0,190.9671703998465,,190.90476999990642,10,190.9671703998465,190.9671703998465,0.04544220003299415,192.382243799977,[-0.1015625],[0.41015625],[1],[0],[0],[1.4331029998138547],[],Final_Ayushi,001,2024-10-04_11h30.02.935,D3_exp5_VisualSearchExperiment,2024.1.5,None,2024-10-04 11h30.17.854151 +0530,
100,0,100,0,192.43178609991446,,192.38682129979134,10,192.43178609991446,192.43178609991446,0.03111209999769926,196.09326829994097,[-0.21875],[0.3450520833333333],[1],[0],[0],[3.675839100033045],['target'],Final_Ayushi,001,2024-10-04_11h30.02.935,D3_exp5_VisualSearchExperiment,2024.1.5,None,2024-10-04 11h30.17.854151 +0530,
101,0,101,0,196.12047379999422,,196.0962586000096,5,196.12047379999422,196.12047379999422,0.014795700088143349,197.74387469980866,[0.296875],[0.17057291666666666],[1],[0],[0],[1.6327814999967813],['target'],Final_Ayushi,001,2024-10-04_11h30.02.935,D3_exp5_VisualSearchExperiment,2024.1.5,None,2024-10-04 11h30.17.854151 +0530,
102,0,102,0,197.83909459994175,,197.75156299979426,10,197.83909459994175,197.83909459994175,0.06344059994444251,199.27856959984638,[0.4244791666666667],[0.3020833333333333],[1],[0],[0],[1.4645808001514524],['target'],Final_Ayushi,001,2024-10-04_11h30.02.935,D3_exp5_VisualSearchExperiment,2024.1.5,None,2024-10-04 11h30.17.854151 +0530,
103,0,103,0,199.31694789999165,,199.28317869990133,5,199.31694789999165,199.31694789999165,0.020112500060349703,201.4609278999269,[0.3802083333333333],[-0.3697916666666667],[1],[0],[0],[2.157678699819371],['target'],Final_Ayushi,001,2024-10-04_11h30.02.935,D3_exp5_VisualSearchExperiment,2024.1.5,None,2024-10-04 11h30.17.854151 +0530,
104,0,104,0,201.55416129995137,,201.46804329985753,10,201.55416129995137,201.55416129995137,0.06503350008279085,203.5284711997956,[0.23828125],[-0.18359375],[1],[0],[0],[1.9964509999845177],['target'],Final_Ayushi,001,2024-10-04_11h30.02.935,D3_exp5_VisualSearchExperiment,2024.1.5,None,2024-10-04 11h30.17.854151 +0530,
105,0,105,0,203.5774452998303,,203.53513689991087,5,203.5774452998303,203.5774452998303,0.030340499943122268,205.16156949987635,[0.044270833333333336],[-0.28515625],[1],[0],[0],[1.5969155000057071],['target'],Final_Ayushi,001,2024-10-04_11h30.02.935,D3_exp5_VisualSearchExperiment,2024.1.5,None,2024-10-04 11h30.17.854151 +0530,
106,0,106,0,205.2346200000029,,205.16727370000444,10,205.2346200000029,205.2346200000029,0.052842400036752224,208.09093720000237,[-0.4674479166666667],[-0.3190104166666667],[1],[0],[0],[2.871660500066355],[],Final_Ayushi,001,2024-10-04_11h30.02.935,D3_exp5_VisualSearchExperiment,2024.1.5,None,2024-10-04 11h30.17.854151 +0530,
107,0,107,0,208.144383699866,,208.09783489978872,5,208.144383699866,208.144383699866,0.03360570012591779,209.56132089998573,[-0.0078125],[0.15494791666666666],[1],[0],[0],[1.430887500056997],['target'],Final_Ayushi,001,2024-10-04_11h30.02.935,D3_exp5_VisualSearchExperiment,2024.1.5,None,2024-10-04 11h30.17.854151 +0530,
108,0,108,0,209.60415269993246,,209.5661774999462,5,209.60415269993246,209.60415269993246,0.024304999969899654,210.978377699852,[0.3346354166666667],[0.15494791666666666],[1],[0],[0],[1.3883062999229878],['target'],Final_Ayushi,001,2024-10-04_11h30.02.935,D3_exp5_VisualSearchExperiment,2024.1.5,None,2024-10-04 11h30.17.854151 +0530,
109,0,109,0,211.0082002999261,,210.9832988998387,5,211.0082002999261,211.0082002999261,0.017663100035861135,212.57811529980972,[0.1328125],[-0.36328125],[1],[0],[0],[1.5781668999698013],[],Final_Ayushi,001,2024-10-04_11h30.02.935,D3_exp5_VisualSearchExperiment,2024.1.5,None,2024-10-04 11h30.17.854151 +0530,
110,0,110,0,212.65823869989254,,212.58366559981368,10,212.65823869989254,212.65823869989254,0.05385009991005063,214.3114153998904,[-0.09244791666666667],[-0.4661458333333333],[1],[0],[0],[1.674713100073859],['target'],Final_Ayushi,001,2024-10-04_11h30.02.935,D3_exp5_VisualSearchExperiment,2024.1.5,None,2024-10-04 11h30.17.854151 +0530,
111,0,111,0,214.34845289983787,,214.31575690000318,5,214.34845289983787,214.34845289983787,0.021452900022268295,216.86387819983065,[-0.014322916666666666],[-0.2565104166666667],[1],[0],[0],[2.5269780000671744],['target'],Final_Ayushi,001,2024-10-04_11h30.02.935,D3_exp5_VisualSearchExperiment,2024.1.5,None,2024-10-04 11h30.17.854151 +0530,
112,0,112,0,216.95084519986995,,216.87105099996552,10,216.95084519986995,216.95084519986995,0.058414499973878264,220.6786165998783,[-0.3072916666666667],[0.23177083333333334],[1],[0],[0],[3.7503222001250833],['target'],Final_Ayushi,001,2024-10-04_11h30.02.935,D3_exp5_VisualSearchExperiment,2024.1.5,None,2024-10-04 11h30.17.854151 +0530,
113,0,113,0,220.7102321998682,,220.68225670000538,5,220.7102321998682,220.7102321998682,0.01869019982405007,222.59602069994435,[0.16536458333333334],[0.052083333333333336],[1],[0],[0],[1.8953960000071675],['target'],Final_Ayushi,001,2024-10-04_11h30.02.935,D3_exp5_VisualSearchExperiment,2024.1.5,None,2024-10-04 11h30.17.854151 +0530,
114,0,114,0,222.6338931999635,,222.60112609993666,5,222.6338931999635,222.6338931999635,0.021036500111222267,224.1132571999915,[-0.20703125],[-0.10286458333333333],[1],[0],[0],[1.4914688002318144],[],Final_Ayushi,001,2024-10-04_11h30.02.935,D3_exp5_VisualSearchExperiment,2024.1.5,None,2024-10-04 11h30.17.854151 +0530,
115,0,115,0,224.16125929984264,,224.1196991999168,5,224.16125929984264,224.16125929984264,0.027526000048965216,225.4961260999553,[0.4765625],[0.03125],[1],[0],[0],[1.3497606001328677],[],Final_Ayushi,001,2024-10-04_11h30.02.935,D3_exp5_VisualSearchExperiment,2024.1.5,None,2024-10-04 11h30.17.854151 +0530,
116,0,116,0,225.53190810000524,,225.50069629983045,5,225.53190810000524,225.53190810000524,0.019905799999833107,227.03006639983505,[-0.3815104166666667],[-0.22135416666666666],[1],[0],[0],[1.5100403998512775],['target'],Final_Ayushi,001,2024-10-04_11h30.02.935,D3_exp5_VisualSearchExperiment,2024.1.5,None,2024-10-04 11h30.17.854151 +0530,
117,0,117,0,227.08092999993823,,227.03490559989586,5,227.08092999993823,227.08092999993823,0.03200390003621578,228.53026359993964,[0.07942708333333333],[0.21614583333333334],[1],[0],[0],[1.4636370001826435],['target'],Final_Ayushi,001,2024-10-04_11h30.02.935,D3_exp5_VisualSearchExperiment,2024.1.5,None,2024-10-04 11h30.17.854151 +0530,
118,0,118,0,228.6299304999411,,228.53778289980255,10,228.6299304999411,228.6299304999411,0.06849740003235638,230.63014669995755,[0.27734375],[-0.055989583333333336],[1],[0],[0],[2.025071500102058],['target'],Final_Ayushi,001,2024-10-04_11h30.02.935,D3_exp5_VisualSearchExperiment,2024.1.5,None,2024-10-04 11h30.17.854151 +0530,
119,0,119,0,230.6558118998073,,230.63321469980292,5,230.6558118998073,230.6558118998073,0.01552160014398396,232.78065289999358,[0.4895833333333333],[-0.4427083333333333],[1],[0],[0],[2.131972200004384],['target'],Final_Ayushi,001,2024-10-04_11h30.02.935,D3_exp5_VisualSearchExperiment,2024.1.5,None,2024-10-04 11h30.17.854151 +0530,
120,0,120,0,232.82190579990856,,232.7857046998106,5,232.82190579990856,232.82190579990856,0.022186300018802285,235.064054899849,[0.2994791666666667],[0.4947916666666667],[1],[0],[0],[2.256626399932429],[],Final_Ayushi,001,2024-10-04_11h30.02.935,D3_exp5_VisualSearchExperiment,2024.1.5,None,2024-10-04 11h30.17.854151 +0530,
121,0,121,0,235.13898950000294,,235.06806139997207,10,235.13898950000294,235.13898950000294,0.053821800043806434,236.57880349992774,[0.2747395833333333],[0.2552083333333333],[1],[0],[0],[1.4565216000191867],['target'],Final_Ayushi,001,2024-10-04_11h30.02.935,D3_exp5_VisualSearchExperiment,2024.1.5,None,2024-10-04 11h30.17.854151 +0530,
122,0,122,0,236.6588814998977,,236.5864528999664,10,236.6588814998977,236.6588814998977,0.058237100020051,239.09747779997997,[-0.37109375],[-0.4583333333333333],[1],[0],[0],[2.454082600073889],['target'],Final_Ayushi,001,2024-10-04_11h30.02.935,D3_exp5_VisualSearchExperiment,2024.1.5,None,2024-10-04 11h30.17.854151 +0530,
123,0,123,0,239.132250999799,,239.10226859990507,5,239.132250999799,239.132250999799,0.019931100076064467,241.83172499993816,[-0.4778645833333333],[-0.3606770833333333],[1],[0],[0],[2.7098234000150114],['target'],Final_Ayushi,001,2024-10-04_11h30.02.935,D3_exp5_VisualSearchExperiment,2024.1.5,None,2024-10-04 11h30.17.854151 +0530,
124,0,124,0,241.9245767998509,,241.8388028999325,10,241.9245767998509,241.9245767998509,0.06408030004240572,244.04821739997715,[-0.041666666666666664],[-0.3229166666666667],[1],[0],[0],[2.146465600002557],['target'],Final_Ayushi,001,2024-10-04_11h30.02.935,D3_exp5_VisualSearchExperiment,2024.1.5,None,2024-10-04 11h30.17.854151 +0530,
125,0,125,0,244.1121461999137,,244.0511899997946,10,244.1121461999137,244.1121461999137,0.03875890001654625,245.80894289980642,[0.0625],[0.20703125],[1],[0],[0],[1.7187892999500036],['target'],Final_Ayushi,001,2024-10-04_11h30.02.935,D3_exp5_VisualSearchExperiment,2024.1.5,None,2024-10-04 11h30.17.854151 +0530,
126,0,126,0,245.89430959988385,,245.81556109990925,10,245.89430959988385,245.89430959988385,0.06280709989368916,247.48399989982136,[-0.36328125],[-0.06901041666666667],[1],[0],[0],[1.6063696001656353],['target'],Final_Ayushi,001,2024-10-04_11h30.02.935,D3_exp5_VisualSearchExperiment,2024.1.5,None,2024-10-04 11h30.17.854151 +0530,
127,0,127,0,247.56597479991615,,247.4885908998549,10,247.56597479991615,247.56597479991615,0.050056800013408065,250.7978495999705,[-0.0026041666666666665],[-0.39453125],[1],[0],[0],[3.2595667000859976],['target'],Final_Ayushi,001,2024-10-04_11h30.02.935,D3_exp5_VisualSearchExperiment,2024.1.5,None,2024-10-04 11h30.17.854151 +0530,
128,0,128,0,250.8284648999106,,250.80284189991653,5,250.8284648999106,250.8284648999106,0.01862400001846254,252.39938829978928,[-0.4856770833333333],[-0.3203125],[1],[0],[0],[1.578430199995637],['target'],Final_Ayushi,001,2024-10-04_11h30.02.935,D3_exp5_VisualSearchExperiment,2024.1.5,None,2024-10-04 11h30.17.854151 +0530,
129,0,129,0,252.43424379988573,,252.4036924999673,5,252.43424379988573,252.43424379988573,0.019279500003904104,254.1659450000152,[0.2421875],[-0.4114583333333333],[1],[0],[0],[1.7433283999562263],['target'],Final_Ayushi,001,2024-10-04_11h30.02.935,D3_exp5_VisualSearchExperiment,2024.1.5,None,2024-10-04 11h30.17.854151 +0530,
130,0,130,0,254.25235869991593,,254.17136359983124,10,254.25235869991593,254.25235869991593,0.053683300036937,256.0529272998683,[-0.024739583333333332],[-0.3307291666666667],[1],[0],[0],[1.8284750999882817],['target'],Final_Ayushi,001,2024-10-04_11h30.02.935,D3_exp5_VisualSearchExperiment,2024.1.5,None,2024-10-04 11h30.17.854151 +0530,
131,0,131,0,256.14859509980306,,256.0598127997946,10,256.14859509980306,256.14859509980306,0.06601319997571409,258.4648082999047,[-0.2578125],[-0.20442708333333334],[1],[0],[0],[2.339696899987757],['target'],Final_Ayushi,001,2024-10-04_11h30.02.935,D3_exp5_VisualSearchExperiment,2024.1.5,None,2024-10-04 11h30.17.854151 +0530,
132,0,132,0,258.50971139990725,,258.47045559994876,5,258.50971139990725,258.50971139990725,0.02853529993444681,260.04981959983706,[-0.2604166666666667],[0.2760416666666667],[1],[0],[0],[1.5515307001769543],['target'],Final_Ayushi,001,2024-10-04_11h30.02.935,D3_exp5_VisualSearchExperiment,2024.1.5,None,2024-10-04 11h30.17.854151 +0530,
133,0,133,0,260.0955411999021,,260.0545319998637,5,260.0955411999021,260.0955411999021,0.0250061999540776,262.35010159993544,[-0.3190104166666667],[-0.2877604166666667],[1],[0],[0],[2.2709614001214504],['target'],Final_Ayushi,001,2024-10-04_11h30.02.935,D3_exp5_VisualSearchExperiment,2024.1.5,None,2024-10-04 11h30.17.854151 +0530,
134,0,134,0,262.38820129982196,,262.3551680999808,5,262.38820129982196,262.38820129982196,0.021531500155106187,264.27336099999957,[0.2265625],[0.4765625],[1],[0],[0],[1.8970391999464482],['target'],Final_Ayushi,001,2024-10-04_11h30.02.935,D3_exp5_VisualSearchExperiment,2024.1.5,None,2024-10-04 11h30.17.854151 +0530,
135,0,135,0,264.31586429988965,,264.27894129999913,5,264.31586429988965,264.31586429988965,0.02369209984317422,266.38365219999105,[0.22916666666666666],[-0.2747395833333333],[1],[0],[0],[2.081531699979678],['target'],Final_Ayushi,001,2024-10-04_11h30.02.935,D3_exp5_VisualSearchExperiment,2024.1.5,None,2024-10-04 11h30.17.854151 +0530,
136,0,136,0,266.4151712998282,,266.38948169979267,5,266.4151712998282,266.4151712998282,0.018817000091075897,267.85878229979426,[0.19140625],[0.052083333333333336],[1],[0],[0],[1.4506033000070602],['target'],Final_Ayushi,001,2024-10-04_11h30.02.935,D3_exp5_VisualSearchExperiment,2024.1.5,None,2024-10-04 11h30.17.854151 +0530,
137,0,137,0,267.91609489987604,,267.8665054999292,5,267.91609489987604,267.91609489987604,0.03630069992505014,270.13422129978426,[0.4270833333333333],[0.02734375],[1],[0],[0],[2.2327169000636786],['target'],Final_Ayushi,001,2024-10-04_11h30.02.935,D3_exp5_VisualSearchExperiment,2024.1.5,None,2024-10-04 11h30.17.854151 +0530,
138,0,138,0,270.1847613998689,,270.1411790999118,5,270.1847613998689,270.1847613998689,0.028607399901375175,271.70158699993044,[-0.02734375],[0.046875],[1],[0],[0],[1.532348999986425],['target'],Final_Ayushi,001,2024-10-04_11h30.02.935,D3_exp5_VisualSearchExperiment,2024.1.5,None,2024-10-04 11h30.17.854151 +0530,
139,0,139,0,271.75290509988554,,271.7071889999788,10,271.75290509988554,271.75290509988554,0.03336880006827414,273.2100217998959,[0.4166666666666667],[0.059895833333333336],[1],[0],[0],[1.470060400199145],['target'],Final_Ayushi,001,2024-10-04_11h30.02.935,D3_exp5_VisualSearchExperiment,2024.1.5,None,2024-10-04 11h30.17.854151 +0530,
140,0,140,0,273.2721321999561,,273.2145155000035,10,273.2721321999561,273.2721321999561,0.03641090006567538,274.80126019986346,[0.36328125],[0.45703125],[1],[0],[0],[1.5509244999848306],['target'],Final_Ayushi,001,2024-10-04_11h30.02.935,D3_exp5_VisualSearchExperiment,2024.1.5,None,2024-10-04 11h30.17.854151 +0530,
141,0,141,0,274.86848689988256,,274.80441099987365,10,274.86848689988256,274.86848689988256,0.03885260014794767,276.94508520001546,[0.140625],[0.24739583333333334],[1],[0],[0],[2.1019919998943806],['target'],Final_Ayushi,001,2024-10-04_11h30.02.935,D3_exp5_VisualSearchExperiment,2024.1.5,None,2024-10-04 11h30.17.854151 +0530,
142,0,142,0,277.0092154999729,,276.9504801998846,10,277.0092154999729,277.0092154999729,0.048211699817329645,279.6725555998273,[0.3606770833333333],[-0.2825520833333333],[1],[0],[0],[2.6744459001347423],['target'],Final_Ayushi,001,2024-10-04_11h30.02.935,D3_exp5_VisualSearchExperiment,2024.1.5,None,2024-10-04 11h30.17.854151 +0530,
143,0,143,0,279.74073869991116,,279.6787647998426,10,279.74073869991116,279.74073869991116,0.04125430015847087,285.5060579997953,[0.3125],[-0.4700520833333333],[1],[0],[0],[5.786615299992263],['target'],Final_Ayushi,001,2024-10-04_11h30.02.935,D3_exp5_VisualSearchExperiment,2024.1.5,None,2024-10-04 11h30.17.854151 +0530,
144,0,144,0,285.57979719992727,,285.51294829999097,10,285.57979719992727,285.57979719992727,0.04856570018455386,287.6199136998039,[-0.3229166666666667],[0.4739583333333333],[1],[0],[0],[2.0593591001816094],['target'],Final_Ayushi,001,2024-10-04_11h30.02.935,D3_exp5_VisualSearchExperiment,2024.1.5,None,2024-10-04 11h30.17.854151 +0530,
145,0,145,0,287.6977128998842,,287.62416359991767,10,287.6977128998842,287.6977128998842,0.05215659993700683,289.36922969995067,[-0.18489583333333334],[-0.19401041666666666],[1],[0],[0],[1.6933883000165224],['target'],Final_Ayushi,001,2024-10-04_11h30.02.935,D3_exp5_VisualSearchExperiment,2024.1.5,None,2024-10-04 11h30.17.854151 +0530,
146,0,146,0,289.4148794999346,,289.37343629985116,5,289.4148794999346,289.4148794999346,0.027143799932673573,291.37035209988244,[0.125],[-0.1328125],[1],[0],[0],[1.9700995001476258],['target'],Final_Ayushi,001,2024-10-04_11h30.02.935,D3_exp5_VisualSearchExperiment,2024.1.5,None,2024-10-04 11h30.17.854151 +0530,
147,0,147,0,291.46156449988484,,291.37753849988803,10,291.46156449988484,291.46156449988484,0.05838830000720918,293.83718289993703,[-0.16536458333333334],[-0.2760416666666667],[1],[0],[0],[2.402004700154066],['target'],Final_Ayushi,001,2024-10-04_11h30.02.935,D3_exp5_VisualSearchExperiment,2024.1.5,None,2024-10-04 11h30.17.854151 +0530,
148,0,148,0,293.8854025998153,,293.8446044998709,5,293.8854025998153,293.8854025998153,0.030187700176611543,296.43753839982674,[-0.4973958333333333],[0.4479166666666667],[1],[0],[0],[2.5636621001176536],['target'],Final_Ayushi,001,2024-10-04_11h30.02.935,D3_exp5_VisualSearchExperiment,2024.1.5,None,2024-10-04 11h30.17.854151 +0530,
149,0,149,0,296.48887569992803,,296.4444263000041,5,296.48887569992803,296.48887569992803,0.028910499997437,298.1706086997874,[0.1015625],[-0.1875],[1],[0],[0],[1.6980827001389116],['target'],Final_Ayushi,001,2024-10-04_11h30.02.935,D3_exp5_VisualSearchExperiment,2024.1.5,None,2024-10-04 11h30.17.854151 +0530,
150,0,150,0,298.2183111999184,,298.17462179996073,10,298.2183111999184,298.2183111999184,0.031847900012508035,299.81922849989496,[0.23307291666666666],[-0.11588541666666667],[1],[0],[0],[1.6130387000739574],['target'],Final_Ayushi,001,2024-10-04_11h30.02.935,D3_exp5_VisualSearchExperiment,2024.1.5,None,2024-10-04 11h30.17.854151 +0530,
151,0,151,0,299.89316629990935,,299.82506589987315,10,299.89316629990935,299.89316629990935,0.04882619995623827,301.4474610998295,[-0.06380208333333333],[-0.026041666666666668],[1],[0],[0],[1.5746416000183672],['target'],Final_Ayushi,001,2024-10-04_11h30.02.935,D3_exp5_VisualSearchExperiment,2024.1.5,None,2024-10-04 11h30.17.854151 +0530,
152,0,152,0,301.5347608998418,,301.4517989999149,10,301.5347608998418,301.5347608998418,0.05833510006777942,303.463954199804,[-0.4049479166666667],[-0.20963541666666666],[1],[0],[0],[1.9544446000363678],['target'],Final_Ayushi,001,2024-10-04_11h30.02.935,D3_exp5_VisualSearchExperiment,2024.1.5,None,2024-10-04 11h30.17.854151 +0530,
153,0,153,0,303.51240629982203,,303.4713668997865,5,303.51240629982203,303.51240629982203,0.02946950006298721,304.98790519987233,[0.2591145833333333],[-0.045572916666666664],[1],[0],[0],[1.487983400002122],['target'],Final_Ayushi,001,2024-10-04_11h30.02.935,D3_exp5_VisualSearchExperiment,2024.1.5,None,2024-10-04 11h30.17.854151 +0530,
154,0,154,0,305.0723393999506,,304.9928412998561,10,305.0723393999506,305.0723393999506,0.05195820005610585,306.67363749979995,[-0.2955729166666667],[-0.24609375],[1],[0],[0],[1.6296379000414163],['target'],Final_Ayushi,001,2024-10-04_11h30.02.935,D3_exp5_VisualSearchExperiment,2024.1.5,None,2024-10-04 11h30.17.854151 +0530,
155,0,155,0,306.7482433998957,,306.67711769999005,10,306.7482433998957,306.7482433998957,0.048757199896499515,308.4028166998178,[-0.19140625],[0.4075520833333333],[1],[0],[0],[1.6766926001291722],['target'],Final_Ayushi,001,2024-10-04_11h30.02.935,D3_exp5_VisualSearchExperiment,2024.1.5,None,2024-10-04 11h30.17.854151 +0530,
156,0,156,0,308.45442189997993,,308.40962209994905,5,308.45442189997993,308.45442189997993,0.029617700027301908,310.09114729985595,[-0.4427083333333333],[-0.03515625],[1],[0],[0],[1.653029999928549],['target'],Final_Ayushi,001,2024-10-04_11h30.02.935,D3_exp5_VisualSearchExperiment,2024.1.5,None,2024-10-04 11h30.17.854151 +0530,
157,0,157,0,310.1420491999015,,310.09719039988704,5,310.1420491999015,310.1420491999015,0.028371900087222457,311.80536329979077,[-0.26953125],[0.109375],[1],[0],[0],[1.6804606998339295],['target'],Final_Ayushi,001,2024-10-04_11h30.02.935,D3_exp5_VisualSearchExperiment,2024.1.5,None,2024-10-04 11h30.17.854151 +0530,
158,0,158,0,311.83439449989237,,311.8096374999732,5,311.83439449989237,311.83439449989237,0.016883500153198838,313.9758224999532,[0.3802083333333333],[-0.3046875],[1],[0],[0],[2.1489876001141965],['target'],Final_Ayushi,001,2024-10-04_11h30.02.935,D3_exp5_VisualSearchExperiment,2024.1.5,None,2024-10-04 11h30.17.854151 +0530,
159,0,159,0,314.01082500000484,,313.98121709981933,5,314.01082500000484,314.01082500000484,0.02080890000797808,316.0554504999891,[-0.4348958333333333],[-0.16015625],[1],[0],[0],[2.053629299858585],['target'],Final_Ayushi,001,2024-10-04_11h30.02.935,D3_exp5_VisualSearchExperiment,2024.1.5,None,2024-10-04 11h30.17.854151 +0530,
160,0,160,0,316.0930635998957,,316.06056769983843,5,316.0930635998957,316.0930635998957,0.02133789984509349,318.5394789997954,[-0.09244791666666667],[0.2981770833333333],[1],[0],[0],[2.4579602000303566],['target'],Final_Ayushi,001,2024-10-04_11h30.02.935,D3_exp5_VisualSearchExperiment,2024.1.5,None,2024-10-04 11h30.17.854151 +0530,
161,0,161,0,318.6085583998356,,318.54618770000525,10,318.6085583998356,318.6085583998356,0.04504420002922416,324.1495351998601,[0.46484375],[0.4596354166666667],[1],[0],[0],[5.559267100179568],['target'],Final_Ayushi,001,2024-10-04_11h30.02.935,D3_exp5_VisualSearchExperiment,2024.1.5,None,2024-10-04 11h30.17.854151 +0530,
162,0,162,0,324.1948019999545,,324.1575702999253,5,324.1948019999545,324.1948019999545,0.029533699853345752,325.97339029982686,[0.3177083333333333],[-0.140625],[1],[0],[0],[1.787290500011295],['target'],Final_Ayushi,001,2024-10-04_11h30.02.935,D3_exp5_VisualSearchExperiment,2024.1.5,None,2024-10-04 11h30.17.854151 +0530,
163,0,163,0,326.0035558999516,,325.9782916000113,5,326.0035558999516,326.0035558999516,0.017904700012877584,327.4906884999946,[0.11328125],[-0.0625],[1],[0],[0],[1.4948024000041187],['target'],Final_Ayushi,001,2024-10-04_11h30.02.935,D3_exp5_VisualSearchExperiment,2024.1.5,None,2024-10-04 11h30.17.854151 +0530,
164,0,164,0,327.5733511999715,,327.4984607999213,10,327.5733511999715,327.5733511999715,0.05569959990680218,329.0597284999676,[-0.20182291666666666],[0.18619791666666666],[1],[0],[0],[1.5068423999473453],['target'],Final_Ayushi,001,2024-10-04_11h30.02.935,D3_exp5_VisualSearchExperiment,2024.1.5,None,2024-10-04 11h30.17.854151 +0530,
165,0,165,0,329.0879526999779,,329.0639591999352,5,329.0879526999779,329.0879526999779,0.01720590004697442,330.69232329982333,[-0.07942708333333333],[0.3997395833333333],[1],[0],[0],[1.6112361000850797],['target'],Final_Ayushi,001,2024-10-04_11h30.02.935,D3_exp5_VisualSearchExperiment,2024.1.5,None,2024-10-04 11h30.17.854151 +0530,
166,0,166,0,330.7827924999874,,330.6994849999901,10,330.7827924999874,330.7827924999874,0.056060200091451406,333.79076609993353,[0.4270833333333333],[-0.4544270833333333],[1],[0],[0],[3.0363968999590725],['target'],Final_Ayushi,001,2024-10-04_11h30.02.935,D3_exp5_VisualSearchExperiment,2024.1.5,None,2024-10-04 11h30.17.854151 +0530,
167,0,167,0,333.81832839990966,,333.7937789999414,5,333.81832839990966,333.81832839990966,0.016426699934527278,335.8121501998976,[-0.041666666666666664],[0.1953125],[1],[0],[0],[2.0021544999908656],['target'],Final_Ayushi,001,2024-10-04_11h30.02.935,D3_exp5_VisualSearchExperiment,2024.1.5,None,2024-10-04 11h30.17.854151 +0530,
168,0,168,0,335.8811052998062,,335.81677039992064,10,335.8811052998062,335.8811052998062,0.0493043998721987,337.44124359986745,[0.1640625],[0.3098958333333333],[1],[0],[0],[1.5757357999682426],['target'],Final_Ayushi,001,2024-10-04_11h30.02.935,D3_exp5_VisualSearchExperiment,2024.1.5,None,2024-10-04 11h30.17.854151 +0530,
169,0,169,0,337.4687848999165,,337.444186499808,5,337.4687848999165,337.4687848999165,0.01646820013411343,339.2752107998822,[0.22135416666666666],[-0.06380208333333333],[1],[0],[0],[1.8144318999256939],['target'],Final_Ayushi,001,2024-10-04_11h30.02.935,D3_exp5_VisualSearchExperiment,2024.1.5,None,2024-10-04 11h30.17.854151 +0530,
170,0,170,0,339.3258809999097,,339.2820563998539,5,339.3258809999097,339.3258809999097,0.02850569994188845,341.1250816998072,[-0.4856770833333333],[0.2630208333333333],[1],[0],[0],[1.8154747001826763],['target'],Final_Ayushi,001,2024-10-04_11h30.02.935,D3_exp5_VisualSearchExperiment,2024.1.5,None,2024-10-04 11h30.17.854151 +0530,
171,0,171,0,341.18976969993673,,341.1290535000153,10,341.18976969993673,341.18976969993673,0.042851599864661694,343.6775628000032,[-0.2877604166666667],[-0.3984375],[1],[0],[0],[2.505929199978709],['target'],Final_Ayushi,001,2024-10-04_11h30.02.935,D3_exp5_VisualSearchExperiment,2024.1.5,None,2024-10-04 11h30.17.854151 +0530,
172,0,172,0,343.7285558998119,,343.68423699983396,5,343.7285558998119,343.7285558998119,0.02833710005506873,345.5104274000041,[0.4283854166666667],[-0.12630208333333334],[1],[0],[0],[1.7984814997762442],['target'],Final_Ayushi,001,2024-10-04_11h30.02.935,D3_exp5_VisualSearchExperiment,2024.1.5,None,2024-10-04 11h30.17.854151 +0530,
173,0,173,0,345.56073039979674,,345.51536349998787,5,345.56073039979674,345.56073039979674,0.029317599954083562,348.15969299990684,[0.34375],[0.16796875],[1],[0],[0],[2.615389300044626],['target'],Final_Ayushi,001,2024-10-04_11h30.02.935,D3_exp5_VisualSearchExperiment,2024.1.5,None,2024-10-04 11h30.17.854151 +0530,
174,0,174,0,348.2142281997949,,348.16473039984703,10,348.2142281997949,348.2142281997949,0.034778499975800514,350.509734199848,[-0.1953125],[-0.453125],[1],[0],[0],[2.3101820000447333],['target'],Final_Ayushi,001,2024-10-04_11h30.02.935,D3_exp5_VisualSearchExperiment,2024.1.5,None,2024-10-04 11h30.17.854151 +0530,
175,0,175,0,350.5897595998831,,350.51654509990476,10,350.5897595998831,350.5897595998831,0.05387450009584427,353.14456859999336,[0.013020833333333334],[0.5],[1],[0],[0],[2.574978399788961],['target'],Final_Ayushi,001,2024-10-04_11h30.02.935,D3_exp5_VisualSearchExperiment,2024.1.5,None,2024-10-04 11h30.17.854151 +0530,
176,0,176,0,353.1786277999636,,353.1505414999556,5,353.1786277999636,353.1786277999636,0.019849599804729223,355.37667869986035,[-0.4765625],[-0.3190104166666667],[1],[0],[0],[2.2071182001382113],['target'],Final_Ayushi,001,2024-10-04_11h30.02.935,D3_exp5_VisualSearchExperiment,2024.1.5,None,2024-10-04 11h30.17.854151 +0530,
177,0,177,0,355.4239395998884,,355.38141809985973,5,355.4239395998884,355.4239395998884,0.02810600004158914,357.34402199997567,[-0.09635416666666667],[0.1796875],[1],[0],[0],[1.935031200060621],['target'],Final_Ayushi,001,2024-10-04_11h30.02.935,D3_exp5_VisualSearchExperiment,2024.1.5,None,2024-10-04 11h30.17.854151 +0530,
178,0,178,0,357.38606089982204,,357.34916909993626,5,357.38606089982204,357.38606089982204,0.021764199947938323,359.61047649988905,[-0.12109375],[0.15625],[1],[0],[0],[2.239931299816817],['target'],Final_Ayushi,001,2024-10-04_11h30.02.935,D3_exp5_VisualSearchExperiment,2024.1.5,None,2024-10-04 11h30.17.854151 +0530,
179,0,179,0,359.68781779985875,,359.61699819983914,10,359.68781779985875,359.68781779985875,0.045141000067815185,361.7107296998147,[0.2708333333333333],[0.3997395833333333],[1],[0],[0],[2.0494988998398185],['target'],Final_Ayushi,001,2024-10-04_11h30.02.935,D3_exp5_VisualSearchExperiment,2024.1.5,None,2024-10-04 11h30.17.854151 +0530,
180,0,180,0,361.77634359989315,,361.7144239998888,10,361.77634359989315,361.77634359989315,0.041971599915996194,363.37671669991687,[-0.16276041666666666],[0.20963541666666666],[1],[0],[0],[1.6207646001130342],['target'],Final_Ayushi,001,2024-10-04_11h30.02.935,D3_exp5_VisualSearchExperiment,2024.1.5,None,2024-10-04 11h30.17.854151 +0530,
181,0,181,0,363.4036569998134,,363.3799707000144,5,363.4036569998134,363.4036569998134,0.015617500059306622,365.8946822998114,[0.25390625],[-0.19140625],[1],[0],[0],[2.4991105999797583],['target'],Final_Ayushi,001,2024-10-04_11h30.02.935,D3_exp5_VisualSearchExperiment,2024.1.5,None,2024-10-04 11h30.17.854151 +0530,
182,0,182,0,365.95010419981554,,365.9022412998602,5,365.95010419981554,365.95010419981554,0.0321253000292927,367.74478389997967,[0.1171875],[0.34375],[1],[0],[0],[1.8117392000276595],['target'],Final_Ayushi,001,2024-10-04_11h30.02.935,D3_exp5_VisualSearchExperiment,2024.1.5,None,2024-10-04 11h30.17.854151 +0530,
183,0,183,0,367.77978029986843,,367.7492177998647,5,367.77978029986843,367.77978029986843,0.018649099860340357,369.9790454998147,[0.4869791666666667],[0.08984375],[1],[0],[0],[2.2114490000531077],['target'],Final_Ayushi,001,2024-10-04_11h30.02.935,D3_exp5_VisualSearchExperiment,2024.1.5,None,2024-10-04 11h30.17.854151 +0530,
184,0,184,0,370.00927309994586,,369.98479469981976,5,370.00927309994586,370.00927309994586,0.018415400059893727,371.51163139985874,[0.2890625],[0.14453125],[1],[0],[0],[1.5089451000094414],['target'],Final_Ayushi,001,2024-10-04_11h30.02.935,D3_exp5_VisualSearchExperiment,2024.1.5,None,2024-10-04 11h30.17.854151 +0530,
185,0,185,0,371.5648662999738,,371.5175963998772,5,371.5648662999738,371.5648662999738,0.03201129985973239,373.2616697999183,[-0.08854166666666667],[0.1953125],[1],[0],[0],[1.712739699985832],['target'],Final_Ayushi,001,2024-10-04_11h30.02.935,D3_exp5_VisualSearchExperiment,2024.1.5,None,2024-10-04 11h30.17.854151 +0530,
186,0,186,0,373.3103592998814,,373.2675796998665,5,373.3103592998814,373.3103592998814,0.02706889994442463,375.6454385998659,[-0.16666666666666666],[-0.3307291666666667],[1],[0],[0],[2.3511666001286358],['target'],Final_Ayushi,001,2024-10-04_11h30.02.935,D3_exp5_VisualSearchExperiment,2024.1.5,None,2024-10-04 11h30.17.854151 +0530,
187,0,187,0,375.6942065998446,,375.65182749996893,5,375.6942065998446,375.6942065998446,0.025751400040462613,377.9124255999923,[-0.19140625],[0.484375],[1],[0],[0],[2.2354999999515712],['target'],Final_Ayushi,001,2024-10-04_11h30.02.935,D3_exp5_VisualSearchExperiment,2024.1.5,None,2024-10-04 11h30.17.854151 +0530,
188,0,188,0,377.9927667998709,,377.91956539987586,10,377.9927667998709,377.9927667998709,0.059875500155612826,379.7786866999231,[0.057291666666666664],[-0.14583333333333334],[1],[0],[0],[1.8001804000232369],[],Final_Ayushi,001,2024-10-04_11h30.02.935,D3_exp5_VisualSearchExperiment,2024.1.5,None,2024-10-04 11h30.17.854151 +0530,
189,0,189,0,379.8273032999132,,379.7835978998337,5,379.8273032999132,379.8273032999132,0.02839510003104806,381.63007109984756,[0.0625],[0.2421875],[1],[0],[0],[1.8185439000371844],['target'],Final_Ayushi,001,2024-10-04_11h30.02.935,D3_exp5_VisualSearchExperiment,2024.1.5,None,2024-10-04 11h30.17.854151 +0530,
190,0,190,0,381.7141743998509,,381.63596189999953,10,381.7141743998509,381.7141743998509,0.053353600203990936,383.27115089981817,[-0.12890625],[-0.11197916666666667],[1],[0],[0],[1.5822560000233352],['target'],Final_Ayushi,001,2024-10-04_11h30.02.935,D3_exp5_VisualSearchExperiment,2024.1.5,None,2024-10-04 11h30.17.854151 +0530,
191,0,191,0,383.34393769991584,,383.281037800014,10,383.34393769991584,383.34393769991584,0.05052849999628961,384.92692569992505,[0.08984375],[0.22135416666666666],[1],[0],[0],[1.596420600079],['target'],Final_Ayushi,001,2024-10-04_11h30.02.935,D3_exp5_VisualSearchExperiment,2024.1.5,None,2024-10-04 11h30.17.854151 +0530,
192,0,192,0,384.988426099997,,384.9310574999545,10,384.988426099997,384.988426099997,0.0458854001481086,387.6464457998518,[0.4609375],[-0.020833333333333332],[1],[0],[0],[2.6700485998298973],['target'],Final_Ayushi,001,2024-10-04_11h30.02.935,D3_exp5_VisualSearchExperiment,2024.1.5,None,2024-10-04 11h30.17.854151 +0530,
193,0,193,0,387.67613689997233,,387.6494620000012,5,387.67613689997233,387.67613689997233,0.016635499894618988,389.5133158999961,[0.16276041666666666],[-0.016927083333333332],[1],[0],[0],[1.8473204001784325],['target'],Final_Ayushi,001,2024-10-04_11h30.02.935,D3_exp5_VisualSearchExperiment,2024.1.5,None,2024-10-04 11h30.17.854151 +0530,
194,0,194,0,389.59042649995536,,389.5184946998488,10,389.59042649995536,389.59042649995536,0.05629789992235601,391.86911769979633,[-0.47265625],[-0.3463541666666667],[1],[0],[0],[2.2951278002001345],['target'],Final_Ayushi,001,2024-10-04_11h30.02.935,D3_exp5_VisualSearchExperiment,2024.1.5,None,2024-10-04 11h30.17.854151 +0530,
195,0,195,0,391.90123109985143,,391.87202469981275,5,391.90123109985143,391.90123109985143,0.018236200092360377,394.0637467999477,[-0.015625],[-0.44921875],[1],[0],[0],[2.1735568000003695],['target'],Final_Ayushi,001,2024-10-04_11h30.02.935,D3_exp5_VisualSearchExperiment,2024.1.5,None,2024-10-04 11h30.17.854151 +0530,
196,0,196,0,394.1530937999487,,394.06851010001265,10,394.1530937999487,394.1530937999487,0.05767290014773607,395.9801041998435,[0.22786458333333334],[0.11067708333333333],[1],[0],[0],[1.8544199999887496],['target'],Final_Ayushi,001,2024-10-04_11h30.02.935,D3_exp5_VisualSearchExperiment,2024.1.5,None,2024-10-04 11h30.17.854151 +0530,
197,0,197,0,396.0556752998382,,395.98499679984525,10,396.0556752998382,396.0556752998382,0.046617900021374226,397.5804097999353,[0.34765625],[0.21614583333333334],[1],[0],[0],[1.5495106999296695],[],Final_Ayushi,001,2024-10-04_11h30.02.935,D3_exp5_VisualSearchExperiment,2024.1.5,None,2024-10-04 11h30.17.854151 +0530,
198,0,198,0,397.65240199980326,,397.5837002999615,10,397.65240199980326,397.65240199980326,0.039635999826714396,400.447363599902,[0.40234375],[-0.45703125],[1],[0],[0],[2.8243970000185072],['target'],Final_Ayushi,001,2024-10-04_11h30.02.935,D3_exp5_VisualSearchExperiment,2024.1.5,None,2024-10-04 11h30.17.854151 +0530,
199,0,199,0,400.5110570997931,,400.4505461999215,10,400.5110570997931,400.5110570997931,0.03819260001182556,402.21990999998525,[-0.4244791666666667],[0.040364583333333336],[1],[0],[0],[1.7313149999827147],[],Final_Ayushi,001,2024-10-04_11h30.02.935,D3_exp5_VisualSearchExperiment,2024.1.5,None,2024-10-04 11h30.17.854151 +0530,
