trials.thisRepN,trials.thisTrialN,trials.thisN,trials.thisIndex,thisRow.t,notes,trial.started,num_distr,Fixation.started,target.started,mouse.started,trial.stopped,mouse.x,mouse.y,mouse.leftButton,mouse.midButton,mouse.rightButton,mouse.time,mouse.clicked_name,participant,session,date,expName,psychopyVersion,frameRate,expStart,
0,0,0,0,0.032537000020965934,,0.004474200017284602,5,0.032537000020965934,0.032537000020965934,0.020521299971733242,2.6581936000147834,[0.44921875],[-0.35546875],[1],[0],[0],[2.6370248000021093],['target'],participant2,001,2024-10-10_19h10.18.493,D3_exp5_VisualSearchExperiment,2024.1.5,None,2024-10-10 19h10.30.808189 +0530,
1,0,1,0,2.6825748999835923,,2.6616922999965027,5,2.6825748999835923,2.6825748999835923,0.014690000039990991,6.058493199991062,[-0.4036458333333333],[-0.16796875],[1],[0],[0],[3.382378400012385],['target'],participant2,001,2024-10-10_19h10.18.493,D3_exp5_VisualSearchExperiment,2024.1.5,None,2024-10-10 19h10.30.808189 +0530,
2,0,2,0,6.083806300011929,,6.061103600019123,5,6.083806300011929,6.083806300011929,0.01644590002251789,8.243316299980506,[0.21354166666666666],[0.06770833333333333],[1],[0],[0],[2.166030000022147],['target'],participant2,001,2024-10-10_19h10.18.493,D3_exp5_VisualSearchExperiment,2024.1.5,None,2024-10-10 19h10.30.808189 +0530,
3,0,3,0,8.282473800005391,,8.245845500030555,10,8.282473800005391,8.282473800005391,0.027669699979014695,10.892399100004695,[-0.23958333333333334],[0.11197916666666667],[1],[0],[0],[2.6189482000190765],['target'],participant2,001,2024-10-10_19h10.18.493,D3_exp5_VisualSearchExperiment,2024.1.5,None,2024-10-10 19h10.30.808189 +0530,
4,0,4,0,10.916659799986519,,10.895742100023199,5,10.916659799986519,10.916659799986519,0.015158900001551956,12.408852500026114,[-0.09375],[-0.037760416666666664],[1],[0],[0],[1.4983249000506476],['target'],participant2,001,2024-10-10_19h10.18.493,D3_exp5_VisualSearchExperiment,2024.1.5,None,2024-10-10 19h10.30.808189 +0530,
5,0,5,0,12.433252500020899,,12.411544599977788,5,12.433252500020899,12.433252500020899,0.015040499973110855,13.92582050000783,[-0.3372395833333333],[-0.14322916666666666],[1],[0],[0],[1.4995257999980822],['target'],participant2,001,2024-10-10_19h10.18.493,D3_exp5_VisualSearchExperiment,2024.1.5,None,2024-10-10 19h10.30.808189 +0530,
6,0,6,0,13.949171299987938,,13.928424999990966,5,13.949171299987938,13.949171299987938,0.01481610001064837,15.425997800019104,[-0.19401041666666666],[0.03125],[1],[0],[0],[1.483033400028944],['target'],participant2,001,2024-10-10_19h10.18.493,D3_exp5_VisualSearchExperiment,2024.1.5,None,2024-10-10 19h10.30.808189 +0530,
7,0,7,0,15.449185699981172,,15.428691299981438,5,15.449185699981172,15.449185699981172,0.014319900015834719,18.94276110001374,[-0.4427083333333333],[0.009114583333333334],[1],[0],[0],[3.5000515999854542],['target'],participant2,001,2024-10-10_19h10.18.493,D3_exp5_VisualSearchExperiment,2024.1.5,None,2024-10-10 19h10.30.808189 +0530,
8,0,8,0,18.96696009999141,,18.945777699991595,5,18.96696009999141,18.96696009999141,0.01537889998871833,20.443243400019128,[-0.04296875],[0.02734375],[1],[0],[0],[1.4822854999802075],['target'],participant2,001,2024-10-10_19h10.18.493,D3_exp5_VisualSearchExperiment,2024.1.5,None,2024-10-10 19h10.30.808189 +0530,
9,0,9,0,20.485933299991302,,20.4458429000224,10,20.485933299991302,20.485933299991302,0.0281474000075832,23.343803700001445,[-0.14713541666666666],[0.4283854166666667],[1],[0],[0],[2.8699795000138693],['target'],participant2,001,2024-10-10_19h10.18.493,D3_exp5_VisualSearchExperiment,2024.1.5,None,2024-10-10 19h10.30.808189 +0530,
10,0,10,0,23.367103299999144,,23.346476199978497,5,23.367103299999144,23.367103299999144,0.014733399963006377,26.093997200019658,[0.4635416666666667],[-0.037760416666666664],[1],[0],[0],[2.7329741999856196],['target'],participant2,001,2024-10-10_19h10.18.493,D3_exp5_VisualSearchExperiment,2024.1.5,None,2024-10-10 19h10.30.808189 +0530,
11,0,11,0,26.116998100013006,,26.096856600022875,5,26.116998100013006,26.116998100013006,0.014258599956519902,27.8936935000238,[0.3502604166666667],[0.3072916666666667],[1],[0],[0],[1.7827658000169322],['target'],participant2,001,2024-10-10_19h10.18.493,D3_exp5_VisualSearchExperiment,2024.1.5,None,2024-10-10 19h10.30.808189 +0530,
12,0,12,0,27.933646799996495,,27.896344500011764,10,27.933646799996495,27.933646799996495,0.027913699974305928,30.39453879999928,[-0.2708333333333333],[-0.140625],[1],[0],[0],[2.4703710000030696],['target'],participant2,001,2024-10-10_19h10.18.493,D3_exp5_VisualSearchExperiment,2024.1.5,None,2024-10-10 19h10.30.808189 +0530,
13,0,13,0,30.43563570000697,,30.39716180000687,10,30.43563570000697,30.43563570000697,0.029402200016193092,37.22838240000419,[-0.3502604166666667],[-0.3984375],[1],[0],[0],[6.802021600014996],['target'],participant2,001,2024-10-10_19h10.18.493,D3_exp5_VisualSearchExperiment,2024.1.5,None,2024-10-10 19h10.30.808189 +0530,
14,0,14,0,37.251112700032536,,37.230994699988514,5,37.251112700032536,37.251112700032536,0.01429899997310713,39.461722999985795,[0.2786458333333333],[0.1953125],[1],[0],[0],[2.216671700007282],['target'],participant2,001,2024-10-10_19h10.18.493,D3_exp5_VisualSearchExperiment,2024.1.5,None,2024-10-10 19h10.30.808189 +0530,
15,0,15,0,39.50384469999699,,39.46431670000311,10,39.50384469999699,39.50384469999699,0.030142300005536526,43.72909079998499,[-0.13671875],[-0.40625],[1],[0],[0],[4.234817000047769],['target'],participant2,001,2024-10-10_19h10.18.493,D3_exp5_VisualSearchExperiment,2024.1.5,None,2024-10-10 19h10.30.808189 +0530,
16,0,16,0,43.769666599982884,,43.73176059999969,10,43.769666599982884,43.769666599982884,0.028472399979364127,46.94605989998672,[-0.24479166666666666],[0.4231770833333333],[1],[0],[0],[3.186039399995934],['target'],participant2,001,2024-10-10_19h10.18.493,D3_exp5_VisualSearchExperiment,2024.1.5,None,2024-10-10 19h10.30.808189 +0530,
17,0,17,0,46.96949470002437,,46.94870280002942,5,46.96949470002437,46.96949470002437,0.014908600016497076,50.64651059999596,[-0.5078125],[-0.30078125],[1],[0],[0],[3.683146699971985],[],participant2,001,2024-10-10_19h10.18.493,D3_exp5_VisualSearchExperiment,2024.1.5,None,2024-10-10 19h10.30.808189 +0530,
18,0,18,0,50.685564499988686,,50.649206200032495,10,50.685564499988686,50.685564499988686,0.02706430002581328,52.59620949998498,[0.24479166666666666],[-0.15104166666666666],[1],[0],[0],[1.9201451999833807],['target'],participant2,001,2024-10-10_19h10.18.493,D3_exp5_VisualSearchExperiment,2024.1.5,None,2024-10-10 19h10.30.808189 +0530,
19,0,19,0,52.635647399991285,,52.598850500013214,10,52.635647399991285,52.635647399991285,0.027477399969939142,55.08045220002532,[0.2799479166666667],[0.4309895833333333],[1],[0],[0],[2.454382300027646],['target'],participant2,001,2024-10-10_19h10.18.493,D3_exp5_VisualSearchExperiment,2024.1.5,None,2024-10-10 19h10.30.808189 +0530,
20,0,20,0,55.12003599997843,,55.08315289998427,10,55.12003599997843,55.12003599997843,0.02760680002393201,57.747261599986814,[-0.3619791666666667],[-0.3372395833333333],[1],[0],[0],[2.636680299998261],[],participant2,001,2024-10-10_19h10.18.493,D3_exp5_VisualSearchExperiment,2024.1.5,None,2024-10-10 19h10.30.808189 +0530,
21,0,21,0,57.78895110002486,,57.74986620002892,10,57.78895110002486,57.78895110002486,0.02980680001201108,59.947141400014516,[0.39453125],[0.036458333333333336],[1],[0],[0],[2.1676918999874033],['target'],participant2,001,2024-10-10_19h10.18.493,D3_exp5_VisualSearchExperiment,2024.1.5,None,2024-10-10 19h10.30.808189 +0530,
22,0,22,0,59.969980800000485,,59.949824500014074,5,59.969980800000485,59.969980800000485,0.014287900005001575,61.71393309999257,[0.06770833333333333],[0.4166666666666667],[1],[0],[0],[1.7500585000379942],[],participant2,001,2024-10-10_19h10.18.493,D3_exp5_VisualSearchExperiment,2024.1.5,None,2024-10-10 19h10.30.808189 +0530,
23,0,23,0,61.73741930001415,,61.716531199985184,5,61.73741930001415,61.73741930001415,0.014726799970958382,62.547614599985536,[0.09375],[0.3190104166666667],[1],[0],[0],[0.8165261999820359],[],participant2,001,2024-10-10_19h10.18.493,D3_exp5_VisualSearchExperiment,2024.1.5,None,2024-10-10 19h10.30.808189 +0530,
24,0,24,0,62.570842700020876,,62.550236299983226,5,62.570842700020876,62.570842700020876,0.014470000052824616,64.95086550002452,[-0.07421875],[0.14973958333333334],[1],[0],[0],[2.386330800014548],['target'],participant2,001,2024-10-10_19h10.18.493,D3_exp5_VisualSearchExperiment,2024.1.5,None,2024-10-10 19h10.30.808189 +0530,
25,0,25,0,64.97651890001725,,64.95426919998135,5,64.97651890001725,64.97651890001725,0.015239999978803098,66.51481490000151,[-0.005208333333333333],[0.3541666666666667],[1],[0],[0],[1.5455527000012808],['target'],participant2,001,2024-10-10_19h10.18.493,D3_exp5_VisualSearchExperiment,2024.1.5,None,2024-10-10 19h10.30.808189 +0530,
26,0,26,0,66.5546306000324,,66.5174119999865,10,66.5546306000324,66.5546306000324,0.027678999991621822,69.13130950002233,[0.3541666666666667],[0.28515625],[1],[0],[0],[2.586431400035508],[],participant2,001,2024-10-10_19h10.18.493,D3_exp5_VisualSearchExperiment,2024.1.5,None,2024-10-10 19h10.30.808189 +0530,
27,0,27,0,69.15397019998636,,69.13401670003077,5,69.15397019998636,69.15397019998636,0.013969699968583882,75.08208710001782,[0.2552083333333333],[0.21484375],[1],[0],[0],[5.934312299999874],['target'],participant2,001,2024-10-10_19h10.18.493,D3_exp5_VisualSearchExperiment,2024.1.5,None,2024-10-10 19h10.30.808189 +0530,
28,0,28,0,75.12186150002526,,75.08466470002895,10,75.12186150002526,75.12186150002526,0.027792799985036254,76.61550620000344,[0.3151041666666667],[0.08333333333333333],[1],[0],[0],[1.5032443999662064],['target'],participant2,001,2024-10-10_19h10.18.493,D3_exp5_VisualSearchExperiment,2024.1.5,None,2024-10-10 19h10.30.808189 +0530,
29,0,29,0,76.63851419999264,,76.61812420003116,5,76.63851419999264,76.63851419999264,0.01450930000282824,80.68261030002031,[0.3333333333333333],[-0.08984375],[1],[0],[0],[4.050202199956402],['target'],participant2,001,2024-10-10_19h10.18.493,D3_exp5_VisualSearchExperiment,2024.1.5,None,2024-10-10 19h10.30.808189 +0530,
30,0,30,0,80.72308540000813,,80.68520060001174,10,80.72308540000813,80.72308540000813,0.028261300001759082,82.11629999999423,[0.4661458333333333],[-0.19010416666666666],[1],[0],[0],[1.403074900037609],[],participant2,001,2024-10-10_19h10.18.493,D3_exp5_VisualSearchExperiment,2024.1.5,None,2024-10-10 19h10.30.808189 +0530,
31,0,31,0,82.15624219999881,,82.11892999999691,10,82.15624219999881,82.15624219999881,0.02734010003041476,89.33384330000263,[0.08072916666666667],[-0.46875],[1],[0],[0],[7.187780599982943],['target'],participant2,001,2024-10-10_19h10.18.493,D3_exp5_VisualSearchExperiment,2024.1.5,None,2024-10-10 19h10.30.808189 +0530,
32,0,32,0,89.3575727000134,,89.33643899997696,5,89.3575727000134,89.3575727000134,0.014417300000786781,92.81717160000699,[0.375],[0.07421875],[1],[0],[0],[3.466549800010398],['target'],participant2,001,2024-10-10_19h10.18.493,D3_exp5_VisualSearchExperiment,2024.1.5,None,2024-10-10 19h10.30.808189 +0530,
33,0,33,0,92.8585387999774,,92.81975979998242,10,92.8585387999774,92.8585387999774,0.02894340001512319,95.2507133000181,[0.2864583333333333],[0.2942708333333333],[1],[0],[0],[2.402246000012383],['target'],participant2,001,2024-10-10_19h10.18.493,D3_exp5_VisualSearchExperiment,2024.1.5,None,2024-10-10 19h10.30.808189 +0530,
34,0,34,0,95.29037459997926,,95.25332720001461,10,95.29037459997926,95.29037459997926,0.027601200039498508,97.31796640000539,[-0.11979166666666667],[0.026041666666666668],[1],[0],[0],[2.037282100005541],['target'],participant2,001,2024-10-10_19h10.18.493,D3_exp5_VisualSearchExperiment,2024.1.5,None,2024-10-10 19h10.30.808189 +0530,
35,0,35,0,97.34131079999497,,97.3205676000216,5,97.34131079999497,97.34131079999497,0.014815600006841123,98.9181307000108,[-0.12890625],[0.4895833333333333],[1],[0],[0],[1.5830338000087067],['target'],participant2,001,2024-10-10_19h10.18.493,D3_exp5_VisualSearchExperiment,2024.1.5,None,2024-10-10 19h10.30.808189 +0530,
36,0,36,0,98.94198990002042,,98.9207805999904,5,98.94198990002042,98.94198990002042,0.015200199966784567,102.53523270000005,[-0.4388020833333333],[-0.037760416666666664],[1],[0],[0],[3.5995280999923125],['target'],participant2,001,2024-10-10_19h10.18.493,D3_exp5_VisualSearchExperiment,2024.1.5,None,2024-10-10 19h10.30.808189 +0530,
37,0,37,0,102.55923940002685,,102.53784900001483,5,102.55923940002685,102.55923940002685,0.014902900031302124,105.90181399998255,[-0.16536458333333334],[-0.31640625],[1],[0],[0],[3.349293300008867],['target'],participant2,001,2024-10-10_19h10.18.493,D3_exp5_VisualSearchExperiment,2024.1.5,None,2024-10-10 19h10.30.808189 +0530,
38,0,38,0,105.92596969997976,,105.9044225999969,5,105.92596969997976,105.92596969997976,0.015850000025238842,108.36871180002345,[0.1484375],[-0.3684895833333333],[1],[0],[0],[2.4486539000063203],['target'],participant2,001,2024-10-10_19h10.18.493,D3_exp5_VisualSearchExperiment,2024.1.5,None,2024-10-10 19h10.30.808189 +0530,
39,0,39,0,108.39197910000803,,108.37134220002918,5,108.39197910000803,108.39197910000803,0.014536999980919063,110.66927160002524,[0.12760416666666666],[0.19921875],[1],[0],[0],[2.2836144999600947],['target'],participant2,001,2024-10-10_19h10.18.493,D3_exp5_VisualSearchExperiment,2024.1.5,None,2024-10-10 19h10.30.808189 +0530,
40,0,40,0,110.7110684000072,,110.6718851000187,10,110.7110684000072,110.7110684000072,0.027515400026459247,113.71969030000037,[0.11458333333333333],[0.4427083333333333],[1],[0],[0],[3.0204827999696136],['target'],participant2,001,2024-10-10_19h10.18.493,D3_exp5_VisualSearchExperiment,2024.1.5,None,2024-10-10 19h10.30.808189 +0530,
41,0,41,0,113.7610805000295,,113.72233030002099,10,113.7610805000295,113.7610805000295,0.028714500018395483,116.4195479999762,[0.4010416666666667],[-0.3203125],[1],[0],[0],[2.6687386000412516],['target'],participant2,001,2024-10-10_19h10.18.493,D3_exp5_VisualSearchExperiment,2024.1.5,None,2024-10-10 19h10.30.808189 +0530,
42,0,42,0,116.46045080001932,,116.42220000002999,10,116.46045080001932,116.46045080001932,0.02851469995221123,119.03664020000724,[0.19010416666666666],[0.08984375],[1],[0],[0],[2.5861631000298075],['target'],participant2,001,2024-10-10_19h10.18.493,D3_exp5_VisualSearchExperiment,2024.1.5,None,2024-10-10 19h10.30.808189 +0530,
43,0,43,0,119.05982740002219,,119.03935229999479,5,119.05982740002219,119.05982740002219,0.014534400019329041,121.43715120002162,[0.4427083333333333],[0.08463541666666667],[1],[0],[0],[2.3835718000191264],['target'],participant2,001,2024-10-10_19h10.18.493,D3_exp5_VisualSearchExperiment,2024.1.5,None,2024-10-10 19h10.30.808189 +0530,
44,0,44,0,121.45997610001359,,121.43977430002997,5,121.45997610001359,121.45997610001359,0.014246099977754056,123.72052560001612,[-0.1328125],[0.4036458333333333],[1],[0],[0],[2.2667456999770366],['target'],participant2,001,2024-10-10_19h10.18.493,D3_exp5_VisualSearchExperiment,2024.1.5,None,2024-10-10 19h10.30.808189 +0530,
45,0,45,0,123.76109240000369,,123.72314269997878,10,123.76109240000369,123.76109240000369,0.028358199982903898,125.35379670001566,[0.4348958333333333],[0.3958333333333333],[1],[0],[0],[1.6025405999971554],['target'],participant2,001,2024-10-10_19h10.18.493,D3_exp5_VisualSearchExperiment,2024.1.5,None,2024-10-10 19h10.30.808189 +0530,
46,0,46,0,125.39589230000274,,125.35643300000811,10,125.39589230000274,125.39589230000274,0.028897899959702045,128.7209833000088,[-0.36328125],[-0.3020833333333333],[1],[0],[0],[3.3358876000274904],['target'],participant2,001,2024-10-10_19h10.18.493,D3_exp5_VisualSearchExperiment,2024.1.5,None,2024-10-10 19h10.30.808189 +0530,
47,0,47,0,128.74603069998557,,128.72358579997672,5,128.74603069998557,128.74603069998557,0.016361100017093122,132.5546655000071,[-0.3294270833333333],[-0.4791666666666667],[1],[0],[0],[3.81493930000579],['target'],participant2,001,2024-10-10_19h10.18.493,D3_exp5_VisualSearchExperiment,2024.1.5,None,2024-10-10 19h10.30.808189 +0530,
48,0,48,0,132.57760429999325,,132.55726319999667,5,132.57760429999325,132.57760429999325,0.014539199997670949,134.9216811999795,[-0.3333333333333333],[0.3359375],[1],[0],[0],[2.3501536999829113],['target'],participant2,001,2024-10-10_19h10.18.493,D3_exp5_VisualSearchExperiment,2024.1.5,None,2024-10-10 19h10.30.808189 +0530,
49,0,49,0,134.96135370002594,,134.92434570001205,10,134.96135370002594,134.96135370002594,0.027400000020861626,137.05504419998033,[-0.27734375],[0.20052083333333334],[1],[0],[0],[2.1034771000267938],['target'],participant2,001,2024-10-10_19h10.18.493,D3_exp5_VisualSearchExperiment,2024.1.5,None,2024-10-10 19h10.30.808189 +0530,
50,0,50,0,137.07858650002163,,137.05774289998226,5,137.07858650002163,137.07858650002163,0.014740899961907417,139.93900439998833,[0.06380208333333333],[-0.2552083333333333],[1],[0],[0],[2.8667764000128955],['target'],participant2,001,2024-10-10_19h10.18.493,D3_exp5_VisualSearchExperiment,2024.1.5,None,2024-10-10 19h10.30.808189 +0530,
51,0,51,0,139.9785348000005,,139.9417232000269,10,139.9785348000005,139.9785348000005,0.02753550000488758,141.93887479999103,[-0.3346354166666667],[0.10677083333333333],[1],[0],[0],[1.9697881999891251],['target'],participant2,001,2024-10-10_19h10.18.493,D3_exp5_VisualSearchExperiment,2024.1.5,None,2024-10-10 19h10.30.808189 +0530,
52,0,52,0,141.96275110001443,,141.94149479997577,5,141.96275110001443,141.96275110001443,0.015379999997094274,144.48915839998517,[0.359375],[-0.4895833333333333],[1],[0],[0],[2.5325671999598853],['target'],participant2,001,2024-10-10_19h10.18.493,D3_exp5_VisualSearchExperiment,2024.1.5,None,2024-10-10 19h10.30.808189 +0530,
53,0,53,0,144.5125102000311,,144.4919809999992,5,144.5125102000311,144.5125102000311,0.014272500004153699,147.37286429997766,[-0.22265625],[0.4947916666666667],[1],[0],[0],[2.866894999984652],['target'],participant2,001,2024-10-10_19h10.18.493,D3_exp5_VisualSearchExperiment,2024.1.5,None,2024-10-10 19h10.30.808189 +0530,
54,0,54,0,147.39735739998287,,147.37620200001402,5,147.39735739998287,147.39735739998287,0.014618499961216003,150.2565595000051,[0.3346354166666667],[-0.484375],[1],[0],[0],[2.866002800001297],['target'],participant2,001,2024-10-10_19h10.18.493,D3_exp5_VisualSearchExperiment,2024.1.5,None,2024-10-10 19h10.30.808189 +0530,
55,0,55,0,150.31247370003257,,150.25912729999982,5,150.31247370003257,150.31247370003257,0.04722160001983866,152.50723019998986,[-0.3059895833333333],[-0.06901041666666667],[1],[0],[0],[2.201115400006529],['target'],participant2,001,2024-10-10_19h10.18.493,D3_exp5_VisualSearchExperiment,2024.1.5,None,2024-10-10 19h10.30.808189 +0530,
56,0,56,0,152.53097070002696,,152.5099435999873,5,152.53097070002696,152.53097070002696,0.014946000010240823,154.55714709998574,[-0.06640625],[-0.4674479166666667],[1],[0],[0],[2.0325229999725707],['target'],participant2,001,2024-10-10_19h10.18.493,D3_exp5_VisualSearchExperiment,2024.1.5,None,2024-10-10 19h10.30.808189 +0530,
57,0,57,0,154.59994759998517,,154.55981330003124,10,154.59994759998517,154.59994759998517,0.029930899967439473,156.29066519998014,[-0.018229166666666668],[-0.1484375],[1],[0],[0],[1.7011544000124559],['target'],participant2,001,2024-10-10_19h10.18.493,D3_exp5_VisualSearchExperiment,2024.1.5,None,2024-10-10 19h10.30.808189 +0530,
58,0,58,0,156.31446949997917,,156.2933400000329,5,156.31446949997917,156.31446949997917,0.014985900023020804,158.1742288999958,[0.005208333333333333],[-0.2877604166666667],[1],[0],[0],[1.8661455999827012],['target'],participant2,001,2024-10-10_19h10.18.493,D3_exp5_VisualSearchExperiment,2024.1.5,None,2024-10-10 19h10.30.808189 +0530,
59,0,59,0,158.19715690001613,,158.17687070003012,5,158.19715690001613,158.19715690001613,0.014188700006343424,160.0243806000217,[0.4752604166666667],[0.20703125],[1],[0],[0],[1.8335349000408314],['target'],participant2,001,2024-10-10_19h10.18.493,D3_exp5_VisualSearchExperiment,2024.1.5,None,2024-10-10 19h10.30.808189 +0530,
60,0,60,0,160.064905599982,,160.02708690002328,10,160.064905599982,160.064905599982,0.028296600037720054,161.79094079998322,[0.10026041666666667],[0.4817708333333333],[1],[0],[0],[1.735816500033252],['target'],participant2,001,2024-10-10_19h10.18.493,D3_exp5_VisualSearchExperiment,2024.1.5,None,2024-10-10 19h10.30.808189 +0530,
61,0,61,0,161.8306124000228,,161.79358460003277,10,161.8306124000228,161.8306124000228,0.02774029999272898,165.5580423999927,[0.27734375],[-0.46875],[1],[0],[0],[3.736951200000476],['target'],participant2,001,2024-10-10_19h10.18.493,D3_exp5_VisualSearchExperiment,2024.1.5,None,2024-10-10 19h10.30.808189 +0530,
62,0,62,0,165.58057290001307,,165.56065689999377,5,165.58057290001307,165.58057290001307,0.013956299982964993,168.49169960001018,[0.13541666666666666],[0.4375],[1],[0],[0],[2.9172913000220433],['target'],participant2,001,2024-10-10_19h10.18.493,D3_exp5_VisualSearchExperiment,2024.1.5,None,2024-10-10 19h10.30.808189 +0530,
63,0,63,0,168.51494020002428,,168.49433920002775,5,168.51494020002428,168.51494020002428,0.014208100037649274,171.24223979999078,[-0.016927083333333332],[-0.23177083333333334],[1],[0],[0],[2.7338972000288777],['target'],participant2,001,2024-10-10_19h10.18.493,D3_exp5_VisualSearchExperiment,2024.1.5,None,2024-10-10 19h10.30.808189 +0530,
64,0,64,0,171.26488129998324,,171.24487120000413,5,171.26488129998324,171.26488129998324,0.014158600009977818,172.7589077000157,[-0.14973958333333334],[-0.43359375],[1],[0],[0],[1.5001345000346191],['target'],participant2,001,2024-10-10_19h10.18.493,D3_exp5_VisualSearchExperiment,2024.1.5,None,2024-10-10 19h10.30.808189 +0530,
65,0,65,0,172.7822129999986,,172.76160740002524,5,172.7822129999986,172.7822129999986,0.014472500013653189,174.6092314000125,[0.16276041666666666],[0.026041666666666668],[1],[0],[0],[1.8334674999932759],['target'],participant2,001,2024-10-10_19h10.18.493,D3_exp5_VisualSearchExperiment,2024.1.5,None,2024-10-10 19h10.30.808189 +0530,
66,0,66,0,174.6485330000287,,174.61181809997652,10,174.6485330000287,174.6485330000287,0.02727510000113398,178.52624039998045,[-0.4947916666666667],[0.4479166666666667],[1],[0],[0],[3.8874008000129834],['target'],participant2,001,2024-10-10_19h10.18.493,D3_exp5_VisualSearchExperiment,2024.1.5,None,2024-10-10 19h10.30.808189 +0530,
67,0,67,0,178.54917970002862,,178.52883460000157,5,178.54917970002862,178.54917970002862,0.01429309998638928,180.51055690000067,[0.23958333333333334],[0.3411458333333333],[1],[0],[0],[1.9672780000255443],['target'],participant2,001,2024-10-10_19h10.18.493,D3_exp5_VisualSearchExperiment,2024.1.5,None,2024-10-10 19h10.30.808189 +0530,
68,0,68,0,180.56712160003372,,180.5134216999868,10,180.56712160003372,180.56712160003372,0.041504999971948564,182.92674100003205,[-0.19010416666666666],[0.40234375],[1],[0],[0],[2.3721119999536313],['target'],participant2,001,2024-10-10_19h10.18.493,D3_exp5_VisualSearchExperiment,2024.1.5,None,2024-10-10 19h10.30.808189 +0530,
69,0,69,0,182.94981989997905,,182.9293628000305,5,182.94981989997905,182.94981989997905,0.014465500018559396,185.01012240001,[0.14973958333333334],[-0.10807291666666667],[1],[0],[0],[2.0665400000289083],['target'],participant2,001,2024-10-10_19h10.18.493,D3_exp5_VisualSearchExperiment,2024.1.5,None,2024-10-10 19h10.30.808189 +0530,
70,0,70,0,185.04943230003119,,185.01275579998037,10,185.04943230003119,185.04943230003119,0.02705400000559166,188.7273053000099,[-0.06901041666666667],[-0.3463541666666667],[1],[0],[0],[3.687722600006964],['target'],participant2,001,2024-10-10_19h10.18.493,D3_exp5_VisualSearchExperiment,2024.1.5,None,2024-10-10 19h10.30.808189 +0530,
71,0,71,0,188.76631209999323,,188.72999880003044,10,188.76631209999323,188.76631209999323,0.026996000029612333,191.79458699998213,[-0.3802083333333333],[0.3072916666666667],[1],[0],[0],[3.037863799952902],['target'],participant2,001,2024-10-10_19h10.18.493,D3_exp5_VisualSearchExperiment,2024.1.5,None,2024-10-10 19h10.30.808189 +0530,
72,0,72,0,191.81759180000518,,191.79719950002618,5,191.81759180000518,191.81759180000518,0.014598499983549118,194.01100920001045,[-0.2708333333333333],[-0.0013020833333333333],[1],[0],[0],[2.199460700037889],['target'],participant2,001,2024-10-10_19h10.18.493,D3_exp5_VisualSearchExperiment,2024.1.5,None,2024-10-10 19h10.30.808189 +0530,
73,0,73,0,194.05136109999148,,194.01361590001034,10,194.05136109999148,194.05136109999148,0.027457799995318055,196.7946078000241,[0.12109375],[0.2994791666666667],[1],[0],[0],[2.753714599995874],['target'],participant2,001,2024-10-10_19h10.18.493,D3_exp5_VisualSearchExperiment,2024.1.5,None,2024-10-10 19h10.30.808189 +0530,
74,0,74,0,196.81909840001026,,196.7990433999803,5,196.81909840001026,196.81909840001026,0.01431970001431182,199.04511369997635,[0.21875],[0.10416666666666667],[1],[0],[0],[2.232036600005813],['target'],participant2,001,2024-10-10_19h10.18.493,D3_exp5_VisualSearchExperiment,2024.1.5,None,2024-10-10 19h10.30.808189 +0530,
75,0,75,0,199.06740380002884,,199.04776869999478,5,199.06740380002884,199.06740380002884,0.013971899985335767,200.36186020000605,[0.15625],[0.046875],[1],[0],[0],[1.300414799945429],['target'],participant2,001,2024-10-10_19h10.18.493,D3_exp5_VisualSearchExperiment,2024.1.5,None,2024-10-10 19h10.30.808189 +0530,
76,0,76,0,200.40202199999476,,200.36473179998575,10,200.40202199999476,200.40202199999476,0.027588400000240654,204.32890670001507,[-0.015625],[0.41796875],[1],[0],[0],[3.9368468000320718],['target'],participant2,001,2024-10-10_19h10.18.493,D3_exp5_VisualSearchExperiment,2024.1.5,None,2024-10-10 19h10.30.808189 +0530,
77,0,77,0,204.36805799999274,,204.33152020000853,10,204.36805799999274,204.36805799999274,0.02688650001073256,206.37902639998356,[0.4401041666666667],[0.48828125],[1],[0],[0],[2.02082649996737],['target'],participant2,001,2024-10-10_19h10.18.493,D3_exp5_VisualSearchExperiment,2024.1.5,None,2024-10-10 19h10.30.808189 +0530,
78,0,78,0,206.42025630001444,,206.38163409999106,10,206.42025630001444,206.42025630001444,0.027973299962468445,208.91255840001395,[0.0546875],[0.3971354166666667],[1],[0],[0],[2.5031692000338808],['target'],participant2,001,2024-10-10_19h10.18.493,D3_exp5_VisualSearchExperiment,2024.1.5,None,2024-10-10 19h10.30.808189 +0530,
79,0,79,0,208.93545510002878,,208.91520609997679,5,208.93545510002878,208.93545510002878,0.014312200015410781,211.57978820003336,[-0.4205729166666667],[-0.4075520833333333],[1],[0],[0],[2.6504847000469454],['target'],participant2,001,2024-10-10_19h10.18.493,D3_exp5_VisualSearchExperiment,2024.1.5,None,2024-10-10 19h10.30.808189 +0530,
80,0,80,0,211.60422719997587,,211.58241119998274,5,211.60422719997587,211.60422719997587,0.015532299992628396,213.71317230002023,[-0.08203125],[-0.4348958333333333],[1],[0],[0],[2.1155011999653652],['target'],participant2,001,2024-10-10_19h10.18.493,D3_exp5_VisualSearchExperiment,2024.1.5,None,2024-10-10 19h10.30.808189 +0530,
81,0,81,0,213.75322950002737,,213.71583110000938,10,213.75322950002737,213.75322950002737,0.027874100022017956,215.92985690000933,[0.4739583333333333],[0.08463541666666667],[1],[0],[0],[2.1863666999852285],['target'],participant2,001,2024-10-10_19h10.18.493,D3_exp5_VisualSearchExperiment,2024.1.5,None,2024-10-10 19h10.30.808189 +0530,
82,0,82,0,215.95281190000242,,215.93258979998063,5,215.95281190000242,215.95281190000242,0.013925500039476901,217.51410380000016,[-0.045572916666666664],[0.30078125],[1],[0],[0],[1.567819599993527],['target'],participant2,001,2024-10-10_19h10.18.493,D3_exp5_VisualSearchExperiment,2024.1.5,None,2024-10-10 19h10.30.808189 +0530,
83,0,83,0,217.53796960000182,,217.51673039997695,5,217.53796960000182,217.53796960000182,0.0150662999949418,221.31374900002265,[0.203125],[0.4088541666666667],[1],[0],[0],[3.782199200009927],['target'],participant2,001,2024-10-10_19h10.18.493,D3_exp5_VisualSearchExperiment,2024.1.5,None,2024-10-10 19h10.30.808189 +0530,
84,0,84,0,221.3372084000148,,221.31633340002736,5,221.3372084000148,221.3372084000148,0.014264099998399615,223.964338699996,[-0.23697916666666666],[0.4947916666666667],[1],[0],[0],[2.6339315000222996],['target'],participant2,001,2024-10-10_19h10.18.493,D3_exp5_VisualSearchExperiment,2024.1.5,None,2024-10-10 19h10.30.808189 +0530,
85,0,85,0,224.00515129999258,,223.9669270000304,10,224.00515129999258,224.00515129999258,0.028304199979174882,225.53127779997885,[0.024739583333333332],[0.3125],[1],[0],[0],[1.5362693999777548],['target'],participant2,001,2024-10-10_19h10.18.493,D3_exp5_VisualSearchExperiment,2024.1.5,None,2024-10-10 19h10.30.808189 +0530,
86,0,86,0,225.57176969997818,,225.5339441000251,10,225.57176969997818,225.57176969997818,0.028373599983751774,227.31484449998243,[0.2994791666666667],[0.4114583333333333],[1],[0],[0],[1.752771599974949],['target'],participant2,001,2024-10-10_19h10.18.493,D3_exp5_VisualSearchExperiment,2024.1.5,None,2024-10-10 19h10.30.808189 +0530,
87,0,87,0,227.33842639997602,,227.31745000003139,5,227.33842639997602,227.33842639997602,0.01504420000128448,230.33200270001544,[-0.2721354166666667],[0.24739583333333334],[1],[0],[0],[2.9997484000050463],['target'],participant2,001,2024-10-10_19h10.18.493,D3_exp5_VisualSearchExperiment,2024.1.5,None,2024-10-10 19h10.30.808189 +0530,
88,0,88,0,230.37266039999668,,230.33491249999497,10,230.37266039999668,230.37266039999668,0.028271300019696355,233.5650407000212,[-0.11197916666666667],[-0.016927083333333332],[1],[0],[0],[3.202167699986603],['target'],participant2,001,2024-10-10_19h10.18.493,D3_exp5_VisualSearchExperiment,2024.1.5,None,2024-10-10 19h10.30.808189 +0530,
89,0,89,0,233.6054095000145,,233.56765839998843,10,233.6054095000145,233.6054095000145,0.02788240002701059,236.74894499999937,[0.3203125],[-0.15104166666666666],[1],[0],[0],[3.153631800028961],['target'],participant2,001,2024-10-10_19h10.18.493,D3_exp5_VisualSearchExperiment,2024.1.5,None,2024-10-10 19h10.30.808189 +0530,
90,0,90,0,236.7885135000106,,236.7515957999858,10,236.7885135000106,236.7885135000106,0.02711159997852519,241.8159521999769,[-0.4713541666666667],[-0.3359375],[1],[0],[0],[5.037489300011657],['target'],participant2,001,2024-10-10_19h10.18.493,D3_exp5_VisualSearchExperiment,2024.1.5,None,2024-10-10 19h10.30.808189 +0530,
91,0,91,0,241.8406202000333,,241.8186274000327,5,241.8406202000333,241.8406202000333,0.014520899974741042,243.91747659997782,[0.39453125],[0.3268229166666667],[1],[0],[0],[2.0843946000095457],['target'],participant2,001,2024-10-10_19h10.18.493,D3_exp5_VisualSearchExperiment,2024.1.5,None,2024-10-10 19h10.30.808189 +0530,
92,0,92,0,243.95126050000545,,243.92364850000013,5,243.95126050000545,243.95126050000545,0.020536100026220083,246.1499842000194,[-0.2994791666666667],[0.390625],[1],[0],[0],[2.2066670999629423],['target'],participant2,001,2024-10-10_19h10.18.493,D3_exp5_VisualSearchExperiment,2024.1.5,None,2024-10-10 19h10.30.808189 +0530,
93,0,93,0,246.17316389997723,,246.152644900023,5,246.17316389997723,246.17316389997723,0.013970299973152578,249.00034159998177,[-0.4635416666666667],[-0.33984375],[1],[0],[0],[2.8339538000291213],['target'],participant2,001,2024-10-10_19h10.18.493,D3_exp5_VisualSearchExperiment,2024.1.5,None,2024-10-10 19h10.30.808189 +0530,
94,0,94,0,249.02478510001674,,249.00299080001423,5,249.02478510001674,249.02478510001674,0.015104799997061491,254.61762799997814,[-0.3111979166666667],[0.3190104166666667],[1],[0],[0],[5.59972120000748],['target'],participant2,001,2024-10-10_19h10.18.493,D3_exp5_VisualSearchExperiment,2024.1.5,None,2024-10-10 19h10.30.808189 +0530,
95,0,95,0,254.65796759998193,,254.6202828999958,10,254.65796759998193,254.65796759998193,0.027657600003294647,258.5511618999881,[0.036458333333333336],[-0.13802083333333334],[1],[0],[0],[3.9034913000068627],['target'],participant2,001,2024-10-10_19h10.18.493,D3_exp5_VisualSearchExperiment,2024.1.5,None,2024-10-10 19h10.30.808189 +0530,
96,0,96,0,258.59081439999864,,258.5538394000032,10,258.59081439999864,258.59081439999864,0.027601500041782856,261.66842479998013,[-0.3111979166666667],[-0.06770833333333333],[1],[0],[0],[3.087179300026037],['target'],participant2,001,2024-10-10_19h10.18.493,D3_exp5_VisualSearchExperiment,2024.1.5,None,2024-10-10 19h10.30.808189 +0530,
97,0,97,0,261.70786600001156,,261.6711386999814,10,261.70786600001156,261.70786600001156,0.027293299965094775,265.9524321000208,[0.453125],[-0.20052083333333334],[1],[0],[0],[4.254148899985012],['target'],participant2,001,2024-10-10_19h10.18.493,D3_exp5_VisualSearchExperiment,2024.1.5,None,2024-10-10 19h10.30.808189 +0530,
98,0,98,0,265.99849590001395,,265.95742230000906,10,265.99849590001395,265.99849590001395,0.032308600028045475,270.36898500000825,[-0.1796875],[0.2552083333333333],[1],[0],[0],[4.380027599981986],['target'],participant2,001,2024-10-10_19h10.18.493,D3_exp5_VisualSearchExperiment,2024.1.5,None,2024-10-10 19h10.30.808189 +0530,
99,0,99,0,270.3951912000193,,270.3719194000005,5,270.3951912000193,270.3951912000193,0.017277699953410774,273.3862326000235,[-0.4361979166666667],[0.5],[1],[0],[0],[2.997560399991926],['target'],participant2,001,2024-10-10_19h10.18.493,D3_exp5_VisualSearchExperiment,2024.1.5,None,2024-10-10 19h10.30.808189 +0530,
100,0,100,0,273.4277813999797,,273.3889269999927,10,273.4277813999797,273.4277813999797,0.028256100020371377,279.3033905000193,[0.3893229166666667],[0.24739583333333334],[1],[0],[0],[5.886453699960839],['target'],participant2,001,2024-10-10_19h10.18.493,D3_exp5_VisualSearchExperiment,2024.1.5,None,2024-10-10 19h10.30.808189 +0530,
101,0,101,0,279.3447383000166,,279.30600510002114,10,279.3447383000166,279.3447383000166,0.02884540002560243,281.97023450001143,[-0.05078125],[0.06770833333333333],[1],[0],[0],[2.6356180000002496],['target'],participant2,001,2024-10-10_19h10.18.493,D3_exp5_VisualSearchExperiment,2024.1.5,None,2024-10-10 19h10.30.808189 +0530,
102,0,102,0,282.0086777000106,,281.9728404000052,10,282.0086777000106,282.0086777000106,0.02686149999499321,284.5037497000303,[-0.16276041666666666],[0.2643229166666667],[1],[0],[0],[2.504309199983254],['target'],participant2,001,2024-10-10_19h10.18.493,D3_exp5_VisualSearchExperiment,2024.1.5,None,2024-10-10 19h10.30.808189 +0530,
103,0,103,0,284.5439651000197,,284.50639769999543,10,284.5439651000197,284.5439651000197,0.027685899985954165,289.00416479998967,[-0.08463541666666667],[-0.3359375],[1],[0],[0],[4.470374200027436],['target'],participant2,001,2024-10-10_19h10.18.493,D3_exp5_VisualSearchExperiment,2024.1.5,None,2024-10-10 19h10.30.808189 +0530,
104,0,104,0,289.030248199997,,289.00682770001004,5,289.030248199997,289.030248199997,0.017157500027678907,291.30477839999367,[-0.18619791666666666],[-0.2760416666666667],[1],[0],[0],[2.2810186999849975],['target'],participant2,001,2024-10-10_19h10.18.493,D3_exp5_VisualSearchExperiment,2024.1.5,None,2024-10-10 19h10.30.808189 +0530,
105,0,105,0,291.3282285000314,,291.30740859999787,5,291.3282285000314,291.3282285000314,0.01439840003149584,294.3046078000334,[0.026041666666666668],[-0.125],[1],[0],[0],[2.983008900017012],['target'],participant2,001,2024-10-10_19h10.18.493,D3_exp5_VisualSearchExperiment,2024.1.5,None,2024-10-10 19h10.30.808189 +0530,
106,0,106,0,294.3277493999922,,294.3071994999773,5,294.3277493999922,294.3277493999922,0.014245900034438819,297.32218140002806,[0.20182291666666666],[-0.12760416666666666],[1],[0],[0],[3.000779199996032],['target'],participant2,001,2024-10-10_19h10.18.493,D3_exp5_VisualSearchExperiment,2024.1.5,None,2024-10-10 19h10.30.808189 +0530,
107,0,107,0,297.3632463000249,,297.3247652000282,10,297.3632463000249,297.3632463000249,0.028624199971091002,299.6220563999959,[-0.4205729166666667],[0.4791666666666667],[1],[0],[0],[2.268930000020191],['target'],participant2,001,2024-10-10_19h10.18.493,D3_exp5_VisualSearchExperiment,2024.1.5,None,2024-10-10 19h10.30.808189 +0530,
108,0,108,0,299.6458991999971,,299.62470230000326,5,299.6458991999971,299.6458991999971,0.014775599993299693,301.1559594999999,[-0.296875],[0.36328125],[1],[0],[0],[1.5165422999998555],['target'],participant2,001,2024-10-10_19h10.18.493,D3_exp5_VisualSearchExperiment,2024.1.5,None,2024-10-10 19h10.30.808189 +0530,
109,0,109,0,301.1792767000152,,301.15855069999816,5,301.1792767000152,301.1792767000152,0.013937200012151152,303.62251950002974,[0.3815104166666667],[-0.18489583333333334],[1],[0],[0],[2.45015190000413],['target'],participant2,001,2024-10-10_19h10.18.493,D3_exp5_VisualSearchExperiment,2024.1.5,None,2024-10-10 19h10.30.808189 +0530,
110,0,110,0,303.66274080000585,,303.62514269998064,10,303.66274080000585,303.66274080000585,0.027765700011514127,308.55596000002697,[-0.4348958333333333],[-0.23828125],[1],[0],[0],[4.903350300039165],['target'],participant2,001,2024-10-10_19h10.18.493,D3_exp5_VisualSearchExperiment,2024.1.5,None,2024-10-10 19h10.30.808189 +0530,
111,0,111,0,308.5951401999919,,308.5586084999959,10,308.5951401999919,308.5951401999919,0.027155500021763146,309.48969449999277,[-0.4348958333333333],[-0.23828125],[1],[0],[0],[0.9041251999442466],[],participant2,001,2024-10-10_19h10.18.493,D3_exp5_VisualSearchExperiment,2024.1.5,None,2024-10-10 19h10.30.808189 +0530,
112,0,112,0,309.5316093000001,,309.4924828999792,10,309.5316093000001,309.5316093000001,0.027381200052332133,313.2567906000186,[-0.2747395833333333],[-0.4505208333333333],[1],[0],[0],[3.737065099994652],['target'],participant2,001,2024-10-10_19h10.18.493,D3_exp5_VisualSearchExperiment,2024.1.5,None,2024-10-10 19h10.30.808189 +0530,
113,0,113,0,313.280225399998,,313.2594633999979,5,313.280225399998,313.280225399998,0.014449200010858476,316.8903293000185,[-0.17838541666666666],[0.4348958333333333],[1],[0],[0],[3.6166451000026427],['target'],participant2,001,2024-10-10_19h10.18.493,D3_exp5_VisualSearchExperiment,2024.1.5,None,2024-10-10 19h10.30.808189 +0530,
114,0,114,0,316.9310973000247,,316.89295150002,10,316.9310973000247,316.9310973000247,0.02764370001386851,319.0741458000266,[0.4505208333333333],[0.2981770833333333],[1],[0],[0],[2.1537719999905676],['target'],participant2,001,2024-10-10_19h10.18.493,D3_exp5_VisualSearchExperiment,2024.1.5,None,2024-10-10 19h10.30.808189 +0530,
115,0,115,0,319.11980769998627,,319.07679660001304,10,319.11980769998627,319.11980769998627,0.031899900001008064,322.12431270000525,[0.2890625],[-0.2877604166666667],[1],[0],[0],[3.0158601999864914],['target'],participant2,001,2024-10-10_19h10.18.493,D3_exp5_VisualSearchExperiment,2024.1.5,None,2024-10-10 19h10.30.808189 +0530,
116,0,116,0,322.1481298999861,,322.12696720001986,5,322.1481298999861,322.1481298999861,0.013881399994716048,323.9411312000011,[-0.3880208333333333],[0.059895833333333336],[1],[0],[0],[1.800527699990198],['target'],participant2,001,2024-10-10_19h10.18.493,D3_exp5_VisualSearchExperiment,2024.1.5,None,2024-10-10 19h10.30.808189 +0530,
117,0,117,0,324.0044596000225,,323.94378540001344,5,324.0044596000225,324.0044596000225,0.05458950001047924,327.7916624000063,[0.2799479166666667],[-0.2994791666666667],[1],[0],[0],[3.7935553999850526],['target'],participant2,001,2024-10-10_19h10.18.493,D3_exp5_VisualSearchExperiment,2024.1.5,None,2024-10-10 19h10.30.808189 +0530,
118,0,118,0,327.814882799983,,327.794290299993,5,327.814882799983,327.814882799983,0.014559299976099283,330.67495449999114,[-0.453125],[-0.21223958333333334],[1],[0],[0],[2.866381099971477],['target'],participant2,001,2024-10-10_19h10.18.493,D3_exp5_VisualSearchExperiment,2024.1.5,None,2024-10-10 19h10.30.808189 +0530,
119,0,119,0,330.69818970002234,,330.6775639000116,5,330.69818970002234,330.69818970002234,0.014427500020246953,333.1756658999948,[-0.06510416666666667],[-0.4583333333333333],[1],[0],[0],[2.4839080999954604],['target'],participant2,001,2024-10-10_19h10.18.493,D3_exp5_VisualSearchExperiment,2024.1.5,None,2024-10-10 19h10.30.808189 +0530,
120,0,120,0,333.2163924999768,,333.17825070000254,10,333.2163924999768,333.2163924999768,0.027335999999195337,335.5758458999917,[-0.3515625],[-0.3098958333333333],[1],[0],[0],[2.370534799993038],['target'],participant2,001,2024-10-10_19h10.18.493,D3_exp5_VisualSearchExperiment,2024.1.5,None,2024-10-10 19h10.30.808189 +0530,
121,0,121,0,335.6158175999881,,335.5784910999937,10,335.6158175999881,335.6158175999881,0.02723920001881197,338.5259001000086,[0.3111979166666667],[0.0390625],[1],[0],[0],[2.920452299993485],['target'],participant2,001,2024-10-10_19h10.18.493,D3_exp5_VisualSearchExperiment,2024.1.5,None,2024-10-10 19h10.30.808189 +0530,
122,0,122,0,338.54878760001156,,338.52863570000045,5,338.54878760001156,338.54878760001156,0.014155699987895787,340.50973130000057,[-0.24479166666666666],[-0.03125],[1],[0],[0],[1.9672270999872126],['target'],participant2,001,2024-10-10_19h10.18.493,D3_exp5_VisualSearchExperiment,2024.1.5,None,2024-10-10 19h10.30.808189 +0530,
123,0,123,0,340.54988360003335,,340.51255919999676,10,340.54988360003335,340.54988360003335,0.027721099962946028,343.52662750001764,[-0.15885416666666666],[0.1875],[1],[0],[0],[2.9865775000071153],['target'],participant2,001,2024-10-10_19h10.18.493,D3_exp5_VisualSearchExperiment,2024.1.5,None,2024-10-10 19h10.30.808189 +0530,
124,0,124,0,343.5676736999885,,343.5294217999908,10,343.5676736999885,343.5676736999885,0.028156100015621632,348.2773951999843,[0.026041666666666668],[-0.2981770833333333],[1],[0],[0],[4.720088700007182],['target'],participant2,001,2024-10-10_19h10.18.493,D3_exp5_VisualSearchExperiment,2024.1.5,None,2024-10-10 19h10.30.808189 +0530,
125,0,125,0,348.31789770000614,,348.2800389000331,10,348.31789770000614,348.31789770000614,0.028472899983171374,352.59430980001343,[-0.2604166666666667],[-0.46484375],[1],[0],[0],[4.286008799972478],['target'],participant2,001,2024-10-10_19h10.18.493,D3_exp5_VisualSearchExperiment,2024.1.5,None,2024-10-10 19h10.30.808189 +0530,
126,0,126,0,352.6182755000191,,352.5970769000123,5,352.6182755000191,352.6182755000191,0.014799099997617304,355.2947693000315,[-0.4986979166666667],[-0.4479166666666667],[1],[0],[0],[2.683020100055728],['target'],participant2,001,2024-10-10_19h10.18.493,D3_exp5_VisualSearchExperiment,2024.1.5,None,2024-10-10 19h10.30.808189 +0530,
127,0,127,0,355.335395800008,,355.297387300001,10,355.335395800008,355.335395800008,0.0271414999733679,358.8613089999999,[-0.421875],[0.4739583333333333],[1],[0],[0],[3.5369806999806315],['target'],participant2,001,2024-10-10_19h10.18.493,D3_exp5_VisualSearchExperiment,2024.1.5,None,2024-10-10 19h10.30.808189 +0530,
128,0,128,0,358.8851211000001,,358.8640003000037,5,358.8851211000001,358.8851211000001,0.014947300020139664,361.0786211999948,[-0.26953125],[0.061197916666666664],[1],[0],[0],[2.1999628999619745],['target'],participant2,001,2024-10-10_19h10.18.493,D3_exp5_VisualSearchExperiment,2024.1.5,None,2024-10-10 19h10.30.808189 +0530,
129,0,129,0,361.1194392000325,,361.08132529997965,10,361.1194392000325,361.1194392000325,0.02896260004490614,364.52894099999685,[0.4739583333333333],[0.42578125],[1],[0],[0],[3.4188404000015],['target'],participant2,001,2024-10-10_19h10.18.493,D3_exp5_VisualSearchExperiment,2024.1.5,None,2024-10-10 19h10.30.808189 +0530,
130,0,130,0,364.56996749999234,,364.5316004999913,10,364.56996749999234,364.56996749999234,0.02792520000366494,367.8790334999794,[-0.23177083333333334],[0.3346354166666667],[1],[0],[0],[3.319748800015077],['target'],participant2,001,2024-10-10_19h10.18.493,D3_exp5_VisualSearchExperiment,2024.1.5,None,2024-10-10 19h10.30.808189 +0530,
131,0,131,0,367.9182766000158,,367.88161470001796,10,367.9182766000158,367.9182766000158,0.02730429999064654,370.8293196000159,[0.23697916666666666],[0.19010416666666666],[1],[0],[0],[2.920619999989867],['target'],participant2,001,2024-10-10_19h10.18.493,D3_exp5_VisualSearchExperiment,2024.1.5,None,2024-10-10 19h10.30.808189 +0530,
132,0,132,0,370.86931620002724,,370.8320056999801,10,370.86931620002724,370.86931620002724,0.027638399973511696,373.12957160000224,[-0.4596354166666667],[0.13671875],[1],[0],[0],[2.2701509000035003],['target'],participant2,001,2024-10-10_19h10.18.493,D3_exp5_VisualSearchExperiment,2024.1.5,None,2024-10-10 19h10.30.808189 +0530,
133,0,133,0,373.1700738000218,,373.1322525999858,10,373.1700738000218,373.1700738000218,0.028305599989835173,378.8971268000314,[0.26953125],[0.3307291666666667],[1],[0],[0],[5.736804700049106],['target'],participant2,001,2024-10-10_19h10.18.493,D3_exp5_VisualSearchExperiment,2024.1.5,None,2024-10-10 19h10.30.808189 +0530,
134,0,134,0,378.9360935000004,,378.89977780001936,10,378.9360935000004,378.9360935000004,0.026786799950059503,381.0140362000093,[-0.3880208333333333],[-0.014322916666666666],[1],[0],[0],[2.0876928999787197],['target'],participant2,001,2024-10-10_19h10.18.493,D3_exp5_VisualSearchExperiment,2024.1.5,None,2024-10-10 19h10.30.808189 +0530,
135,0,135,0,381.0374550999841,,381.016670699988,5,381.0374550999841,381.0374550999841,0.014418100006878376,384.1977348999935,[-0.4088541666666667],[-0.09114583333333333],[1],[0],[0],[3.166807000001427],['target'],participant2,001,2024-10-10_19h10.18.493,D3_exp5_VisualSearchExperiment,2024.1.5,None,2024-10-10 19h10.30.808189 +0530,
136,0,136,0,384.23667830001796,,384.20039840001846,10,384.23667830001796,384.23667830001796,0.026721899979747832,386.43120629998157,[-0.3515625],[0.2682291666666667],[1],[0],[0],[2.204323399986606],['target'],participant2,001,2024-10-10_19h10.18.493,D3_exp5_VisualSearchExperiment,2024.1.5,None,2024-10-10 19h10.30.808189 +0530,
137,0,137,0,386.45945299998857,,386.433944599994,5,386.45945299998857,386.45945299998857,0.019205800024792552,390.564715799992,[-0.3893229166666667],[-0.09635416666666667],[1],[0],[0],[4.1118886999902315],['target'],participant2,001,2024-10-10_19h10.18.493,D3_exp5_VisualSearchExperiment,2024.1.5,None,2024-10-10 19h10.30.808189 +0530,
138,0,138,0,390.5886549000279,,390.5673710000119,5,390.5886549000279,390.5886549000279,0.015514599974267185,393.1148071999778,[0.013020833333333334],[0.40625],[1],[0],[0],[2.532215300016105],['target'],participant2,001,2024-10-10_19h10.18.493,D3_exp5_VisualSearchExperiment,2024.1.5,None,2024-10-10 19h10.30.808189 +0530,
139,0,139,0,393.1380537999794,,393.1174713000073,5,393.1380537999794,393.1380537999794,0.01402340002823621,394.93206449999707,[0.2513020833333333],[-0.14192708333333334],[1],[0],[0],[1.8007562000420876],['target'],participant2,001,2024-10-10_19h10.18.493,D3_exp5_VisualSearchExperiment,2024.1.5,None,2024-10-10 19h10.30.808189 +0530,
140,0,140,0,394.9548403000226,,394.9346806000103,5,394.9548403000226,394.9548403000226,0.013955600035842508,396.98227560002124,[0.22526041666666666],[-0.17708333333333334],[1],[0],[0],[2.033832200046163],['target'],participant2,001,2024-10-10_19h10.18.493,D3_exp5_VisualSearchExperiment,2024.1.5,None,2024-10-10 19h10.30.808189 +0530,
141,0,141,0,397.0220002999995,,396.98487320001004,10,397.0220002999995,397.0220002999995,0.027313900005538017,401.73289570002817,[0.05078125],[0.2578125],[1],[0],[0],[4.720889999996871],['target'],participant2,001,2024-10-10_19h10.18.493,D3_exp5_VisualSearchExperiment,2024.1.5,None,2024-10-10 19h10.30.808189 +0530,
142,0,142,0,401.811189799977,,401.7354472000152,10,401.811189799977,401.811189799977,0.06629679998150095,404.11608700000215,[-0.4791666666666667],[0.033854166666666664],[1],[0],[0],[2.314599499979522],['target'],participant2,001,2024-10-10_19h10.18.493,D3_exp5_VisualSearchExperiment,2024.1.5,None,2024-10-10 19h10.30.808189 +0530,
143,0,143,0,404.1388637999771,,404.11881529999664,5,404.1388637999771,404.1388637999771,0.013978100032545626,407.70011750003323,[0.484375],[0.40625],[1],[0],[0],[3.5676614999538288],['target'],participant2,001,2024-10-10_19h10.18.493,D3_exp5_VisualSearchExperiment,2024.1.5,None,2024-10-10 19h10.30.808189 +0530,
144,0,144,0,407.7410290000262,,407.70292509999126,10,407.7410290000262,407.7410290000262,0.02712550002615899,410.03362210001796,[0.11197916666666667],[0.08984375],[1],[0],[0],[2.303814399987459],['target'],participant2,001,2024-10-10_19h10.18.493,D3_exp5_VisualSearchExperiment,2024.1.5,None,2024-10-10 19h10.30.808189 +0530,
145,0,145,0,410.07392059999984,,410.03626550000627,10,410.07392059999984,410.07392059999984,0.027489400003105402,412.41731659998186,[-0.26953125],[0.08984375],[1],[0],[0],[2.353733199997805],['target'],participant2,001,2024-10-10_19h10.18.493,D3_exp5_VisualSearchExperiment,2024.1.5,None,2024-10-10 19h10.30.808189 +0530,
146,0,146,0,412.4570343000232,,412.41999179997947,10,412.4570343000232,412.4570343000232,0.027004799980204552,415.28428910003277,[0.2578125],[-0.061197916666666664],[1],[0],[0],[2.8375290000112727],['target'],participant2,001,2024-10-10_19h10.18.493,D3_exp5_VisualSearchExperiment,2024.1.5,None,2024-10-10 19h10.30.808189 +0530,
147,0,147,0,415.32452500000363,,415.2869171000202,10,415.32452500000363,415.32452500000363,0.02754719997756183,418.96771679999074,[-0.20833333333333334],[-0.018229166666666668],[1],[0],[0],[3.6534594999975525],[],participant2,001,2024-10-10_19h10.18.493,D3_exp5_VisualSearchExperiment,2024.1.5,None,2024-10-10 19h10.30.808189 +0530,
148,0,148,0,419.0079940999858,,418.9703532999847,10,419.0079940999858,419.0079940999858,0.027271399972960353,424.68493869999656,[0.009114583333333334],[-0.4361979166666667],[1],[0],[0],[5.687590799992904],['target'],participant2,001,2024-10-10_19h10.18.493,D3_exp5_VisualSearchExperiment,2024.1.5,None,2024-10-10 19h10.30.808189 +0530,
149,0,149,0,424.7248245999799,,424.6875632000156,10,424.7248245999799,424.7248245999799,0.027280399983283132,427.1520190000301,[-0.4479166666666667],[-0.07552083333333333],[1],[0],[0],[2.4374462999985553],['target'],participant2,001,2024-10-10_19h10.18.493,D3_exp5_VisualSearchExperiment,2024.1.5,None,2024-10-10 19h10.30.808189 +0530,
150,0,150,0,427.19176140002673,,427.15513810003176,10,427.19176140002673,427.19176140002673,0.02708049997454509,431.25242540001636,[0.47265625],[0.359375],[1],[0],[0],[4.070439199975226],['target'],participant2,001,2024-10-10_19h10.18.493,D3_exp5_VisualSearchExperiment,2024.1.5,None,2024-10-10 19h10.30.808189 +0530,
151,0,151,0,431.29467129998375,,431.2550658999826,10,431.29467129998375,431.29467129998375,0.028333900030702353,434.7561238000053,[0.16276041666666666],[-0.17578125],[1],[0],[0],[3.4729618999990635],['target'],participant2,001,2024-10-10_19h10.18.493,D3_exp5_VisualSearchExperiment,2024.1.5,None,2024-10-10 19h10.30.808189 +0530,
152,0,152,0,434.7788544999785,,434.75875490001636,5,434.7788544999785,434.7788544999785,0.014177099976222962,437.3195904000313,[0.4348958333333333],[-0.4778645833333333],[1],[0],[0],[2.546862000017427],['target'],participant2,001,2024-10-10_19h10.18.493,D3_exp5_VisualSearchExperiment,2024.1.5,None,2024-10-10 19h10.30.808189 +0530,
153,0,153,0,437.34191860002466,,437.3221701000002,5,437.34191860002466,437.34191860002466,0.01390339998761192,442.1532253000187,[-0.24479166666666666],[0.4544270833333333],[1],[0],[0],[4.8173579999711365],['target'],participant2,001,2024-10-10_19h10.18.493,D3_exp5_VisualSearchExperiment,2024.1.5,None,2024-10-10 19h10.30.808189 +0530,
154,0,154,0,442.17692320002243,,442.1561030999874,5,442.17692320002243,442.17692320002243,0.014179799996782094,445.7201890000142,[0.46484375],[-0.2565104166666667],[1],[0],[0],[3.5501531999907456],['target'],participant2,001,2024-10-10_19h10.18.493,D3_exp5_VisualSearchExperiment,2024.1.5,None,2024-10-10 19h10.30.808189 +0530,
155,0,155,0,445.7615482999827,,445.72287649998907,10,445.7615482999827,445.7615482999827,0.028242899978067726,447.55387030000566,[-0.059895833333333336],[0.07942708333333333],[1],[0],[0],[1.8029956999816932],['target'],participant2,001,2024-10-10_19h10.18.493,D3_exp5_VisualSearchExperiment,2024.1.5,None,2024-10-10 19h10.30.808189 +0530,
156,0,156,0,447.57703590003075,,447.55649510002695,5,447.57703590003075,447.57703590003075,0.014382700028363615,449.70449720002944,[-0.20572916666666666],[0.032552083333333336],[1],[0],[0],[2.1337796000298113],['target'],participant2,001,2024-10-10_19h10.18.493,D3_exp5_VisualSearchExperiment,2024.1.5,None,2024-10-10 19h10.30.808189 +0530,
157,0,157,0,449.744593099982,,449.70739900000626,10,449.744593099982,449.744593099982,0.027460400015115738,452.2878295999835,[0.0625],[0.39453125],[1],[0],[0],[2.553446000034455],['target'],participant2,001,2024-10-10_19h10.18.493,D3_exp5_VisualSearchExperiment,2024.1.5,None,2024-10-10 19h10.30.808189 +0530,
158,0,158,0,452.3324392000213,,452.29052420001244,10,452.3324392000213,452.3324392000213,0.029845000011846423,455.15510480001103,[0.15364583333333334],[0.15494791666666666],[1],[0],[0],[2.834986299974844],['target'],participant2,001,2024-10-10_19h10.18.493,D3_exp5_VisualSearchExperiment,2024.1.5,None,2024-10-10 19h10.30.808189 +0530,
159,0,159,0,455.1954365000129,,455.1577491000062,10,455.1954365000129,455.1954365000129,0.027121799997985363,459.255438400025,[-0.3645833333333333],[-0.0390625],[1],[0],[0],[4.070806999981869],['target'],participant2,001,2024-10-10_19h10.18.493,D3_exp5_VisualSearchExperiment,2024.1.5,None,2024-10-10 19h10.30.808189 +0530,
160,0,160,0,459.2970779000316,,459.2581472999882,10,459.2970779000316,459.2970779000316,0.028000099991913885,462.65547549998155,[-0.14713541666666666],[-0.4440104166666667],[1],[0],[0],[3.3695511000114493],['target'],participant2,001,2024-10-10_19h10.18.493,D3_exp5_VisualSearchExperiment,2024.1.5,None,2024-10-10 19h10.30.808189 +0530,
161,0,161,0,462.68011120002484,,462.6580562000163,5,462.68011120002484,462.68011120002484,0.014714799995999783,465.85634130000835,[0.3216145833333333],[0.20833333333333334],[1],[0],[0],[3.183816400007345],['target'],participant2,001,2024-10-10_19h10.18.493,D3_exp5_VisualSearchExperiment,2024.1.5,None,2024-10-10 19h10.30.808189 +0530,
162,0,162,0,465.88055479998,,465.85902789997635,5,465.88055479998,465.88055479998,0.01515530003234744,468.92278660001466,[0.328125],[0.3190104166666667],[1],[0],[0],[3.048907100048382],['target'],participant2,001,2024-10-10_19h10.18.493,D3_exp5_VisualSearchExperiment,2024.1.5,None,2024-10-10 19h10.30.808189 +0530,
163,0,163,0,468.96243020001566,,468.92540230002487,10,468.96243020001566,468.96243020001566,0.02682320005260408,472.0399150000303,[-0.265625],[-0.09244791666666667],[1],[0],[0],[3.087962699995842],['target'],participant2,001,2024-10-10_19h10.18.493,D3_exp5_VisualSearchExperiment,2024.1.5,None,2024-10-10 19h10.30.808189 +0530,
164,0,164,0,472.0803655000054,,472.04262369999196,10,472.0803655000054,472.0803655000054,0.027517299982719123,476.2573992999969,[0.4544270833333333],[-0.09505208333333333],[1],[0],[0],[4.187542200030293],['target'],participant2,001,2024-10-10_19h10.18.493,D3_exp5_VisualSearchExperiment,2024.1.5,None,2024-10-10 19h10.30.808189 +0530,
165,0,165,0,476.28048790001776,,476.2600171000231,5,476.28048790001776,476.28048790001776,0.014048099983483553,477.7910549999797,[0.4713541666666667],[-0.07942708333333333],[1],[0],[0],[1.5170040999655612],['target'],participant2,001,2024-10-10_19h10.18.493,D3_exp5_VisualSearchExperiment,2024.1.5,None,2024-10-10 19h10.30.808189 +0530,
166,0,166,0,477.82154620002257,,477.7944772000192,5,477.82154620002257,477.82154620002257,0.020654599997214973,480.7907958999858,[0.3489583333333333],[0.3828125],[1],[0],[0],[2.976115800032858],['target'],participant2,001,2024-10-10_19h10.18.493,D3_exp5_VisualSearchExperiment,2024.1.5,None,2024-10-10 19h10.30.808189 +0530,
167,0,167,0,480.818404700025,,480.7935865999898,5,480.818404700025,480.818404700025,0.016403300047386438,482.70792289997917,[0.37890625],[0.3619791666666667],[1],[0],[0],[1.8982397000072524],['target'],participant2,001,2024-10-10_19h10.18.493,D3_exp5_VisualSearchExperiment,2024.1.5,None,2024-10-10 19h10.30.808189 +0530,
168,0,168,0,482.7306760000065,,482.7105764999869,5,482.7306760000065,482.7306760000065,0.013970900035928935,484.9415487999795,[0.171875],[-0.23697916666666666],[1],[0],[0],[2.2170958000351675],['target'],participant2,001,2024-10-10_19h10.18.493,D3_exp5_VisualSearchExperiment,2024.1.5,None,2024-10-10 19h10.30.808189 +0530,
169,0,169,0,484.9820234000217,,484.9443323999876,10,484.9820234000217,484.9820234000217,0.02751650003483519,487.6746511000092,[-0.40234375],[0.20182291666666666],[1],[0],[0],[2.703060799976811],['target'],participant2,001,2024-10-10_19h10.18.493,D3_exp5_VisualSearchExperiment,2024.1.5,None,2024-10-10 19h10.30.808189 +0530,
170,0,170,0,487.69892940000864,,487.6772801000043,5,487.69892940000864,487.69892940000864,0.014509800006635487,490.4251963000279,[-0.10677083333333333],[0.4440104166666667],[1],[0],[0],[2.733633399999235],['target'],participant2,001,2024-10-10_19h10.18.493,D3_exp5_VisualSearchExperiment,2024.1.5,None,2024-10-10 19h10.30.808189 +0530,
171,0,171,0,490.44833460001973,,490.42784110002685,5,490.44833460001973,490.44833460001973,0.014516299997922033,492.50881979998667,[0.17708333333333334],[0.1875],[1],[0],[0],[2.066722400020808],['target'],participant2,001,2024-10-10_19h10.18.493,D3_exp5_VisualSearchExperiment,2024.1.5,None,2024-10-10 19h10.30.808189 +0530,
172,0,172,0,492.5313158999779,,492.51147259998834,5,492.5313158999779,492.5313158999779,0.013767900003585964,494.4094103000243,[0.2942708333333333],[-0.12890625],[1],[0],[0],[1.8844223999767564],['target'],participant2,001,2024-10-10_19h10.18.493,D3_exp5_VisualSearchExperiment,2024.1.5,None,2024-10-10 19h10.30.808189 +0530,
173,0,173,0,494.43225650000386,,494.4120245000231,5,494.43225650000386,494.43225650000386,0.01403669995488599,497.3923487000284,[-0.31640625],[-0.234375],[1],[0],[0],[2.9665418999502435],['target'],participant2,001,2024-10-10_19h10.18.493,D3_exp5_VisualSearchExperiment,2024.1.5,None,2024-10-10 19h10.30.808189 +0530,
174,0,174,0,497.41577459999826,,497.39507369999774,5,497.41577459999826,497.41577459999826,0.014345400035381317,499.2758195999777,[0.3697916666666667],[-0.029947916666666668],[1],[0],[0],[1.8667156000155956],['target'],participant2,001,2024-10-10_19h10.18.493,D3_exp5_VisualSearchExperiment,2024.1.5,None,2024-10-10 19h10.30.808189 +0530,
175,0,175,0,499.3153167000273,,499.2784387000138,10,499.3153167000273,499.3153167000273,0.027287700038868934,501.0594009999768,[-0.10807291666666667],[0.16666666666666666],[1],[0],[0],[1.7538945999694988],['target'],participant2,001,2024-10-10_19h10.18.493,D3_exp5_VisualSearchExperiment,2024.1.5,None,2024-10-10 19h10.30.808189 +0530,
176,0,176,0,501.16325520002283,,501.0624033000204,10,501.16325520002283,501.16325520002283,0.09130899998126552,503.8101530999993,[-0.2903645833333333],[-0.10286458333333333],[1],[0],[0],[2.6566583000239916],['target'],participant2,001,2024-10-10_19h10.18.493,D3_exp5_VisualSearchExperiment,2024.1.5,None,2024-10-10 19h10.30.808189 +0530,
177,0,177,0,503.83411310001975,,503.81282480002847,5,503.83411310001975,503.83411310001975,0.01455690001603216,505.9769349999842,[0.15234375],[-0.2864583333333333],[1],[0],[0],[2.149795300036203],['target'],participant2,001,2024-10-10_19h10.18.493,D3_exp5_VisualSearchExperiment,2024.1.5,None,2024-10-10 19h10.30.808189 +0530,
178,0,178,0,506.0177878999966,,505.97963110002456,10,506.0177878999966,506.0177878999966,0.02795509999850765,508.7770165000111,[-0.22135416666666666],[0.5],[1],[0],[0],[2.7696569000254385],['target'],participant2,001,2024-10-10_19h10.18.493,D3_exp5_VisualSearchExperiment,2024.1.5,None,2024-10-10 19h10.30.808189 +0530,
179,0,179,0,508.817855100031,,508.77976689999923,10,508.817855100031,508.817855100031,0.02778619999298826,511.2275075999787,[-0.4635416666666667],[0.17057291666666666],[1],[0],[0],[2.4202163000009023],['target'],participant2,001,2024-10-10_19h10.18.493,D3_exp5_VisualSearchExperiment,2024.1.5,None,2024-10-10 19h10.30.808189 +0530,
180,0,180,0,511.2677610000246,,511.2301430000225,10,511.2677610000246,511.2677610000246,0.028082900040317327,514.3108208000194,[0.4739583333333333],[-0.05078125],[1],[0],[0],[3.0528599999961443],['target'],participant2,001,2024-10-10_19h10.18.493,D3_exp5_VisualSearchExperiment,2024.1.5,None,2024-10-10 19h10.30.808189 +0530,
181,0,181,0,514.3518918000045,,514.3134156999877,10,514.3518918000045,514.3518918000045,0.028579700039699674,517.3448545000283,[-0.4635416666666667],[-0.22916666666666666],[1],[0],[0],[3.0030530999647453],['target'],participant2,001,2024-10-10_19h10.18.493,D3_exp5_VisualSearchExperiment,2024.1.5,None,2024-10-10 19h10.30.808189 +0530,
182,0,182,0,517.3690182000282,,517.3474308000295,5,517.3690182000282,517.3690182000282,0.015249999996740371,519.3617903999984,[0.203125],[-0.061197916666666664],[1],[0],[0],[1.9993437000084668],['target'],participant2,001,2024-10-10_19h10.18.493,D3_exp5_VisualSearchExperiment,2024.1.5,None,2024-10-10 19h10.30.808189 +0530,
183,0,183,0,519.4095424999832,,519.3644447000115,5,519.4095424999832,519.4095424999832,0.014131400035694242,522.9620569000253,[0.2877604166666667],[-0.484375],[1],[0],[0],[3.5837147000129335],['target'],participant2,001,2024-10-10_19h10.18.493,D3_exp5_VisualSearchExperiment,2024.1.5,None,2024-10-10 19h10.30.808189 +0530,
184,0,184,0,522.9863920999924,,522.964896999998,5,522.9863920999924,522.9863920999924,0.015350400004535913,525.1452098999871,[-0.4583333333333333],[-0.07552083333333333],[1],[0],[0],[2.1651703999959864],['target'],participant2,001,2024-10-10_19h10.18.493,D3_exp5_VisualSearchExperiment,2024.1.5,None,2024-10-10 19h10.30.808189 +0530,
185,0,185,0,525.1880754000158,,525.1478215000243,10,525.1880754000158,525.1880754000158,0.029711499984841794,527.4956416999921,[0.07942708333333333],[0.03125],[1],[0],[0],[2.318348300002981],['target'],participant2,001,2024-10-10_19h10.18.493,D3_exp5_VisualSearchExperiment,2024.1.5,None,2024-10-10 19h10.30.808189 +0530,
186,0,186,0,527.5190643999958,,527.498227700009,5,527.5190643999958,527.5190643999958,0.014529299980495125,530.129423699982,[-0.053385416666666664],[-0.19010416666666666],[1],[0],[0],[2.616856699984055],['target'],participant2,001,2024-10-10_19h10.18.493,D3_exp5_VisualSearchExperiment,2024.1.5,None,2024-10-10 19h10.30.808189 +0530,
187,0,187,0,530.1701597999781,,530.1319986000308,10,530.1701597999781,530.1701597999781,0.02763209998374805,535.5628903000033,[-0.2109375],[0.4361979166666667],[1],[0],[0],[5.403539199964143],['target'],participant2,001,2024-10-10_19h10.18.493,D3_exp5_VisualSearchExperiment,2024.1.5,None,2024-10-10 19h10.30.808189 +0530,
188,0,188,0,535.5862034999882,,535.5656539000338,5,535.5862034999882,535.5862034999882,0.014638099994044751,537.0635781000019,[-0.20052083333333334],[0.3606770833333333],[1],[0],[0],[1.483477000030689],['target'],participant2,001,2024-10-10_19h10.18.493,D3_exp5_VisualSearchExperiment,2024.1.5,None,2024-10-10 19h10.30.808189 +0530,
189,0,189,0,537.1028704000055,,537.0661552000092,10,537.1028704000055,537.1028704000055,0.026810400013346225,540.4306271999958,[0.22135416666666666],[-0.4830729166666667],[1],[0],[0],[3.337759100017138],['target'],participant2,001,2024-10-10_19h10.18.493,D3_exp5_VisualSearchExperiment,2024.1.5,None,2024-10-10 19h10.30.808189 +0530,
190,0,190,0,540.4540604000213,,540.433343200013,5,540.4540604000213,540.4540604000213,0.014171899994835258,543.1637892000144,[-0.2643229166666667],[0.2565104166666667],[1],[0],[0],[2.716614099976141],['target'],participant2,001,2024-10-10_19h10.18.493,D3_exp5_VisualSearchExperiment,2024.1.5,None,2024-10-10 19h10.30.808189 +0530,
191,0,191,0,543.2039713999839,,543.1663797000074,10,543.2039713999839,543.2039713999839,0.027302400034386665,547.2480912000174,[-0.18098958333333334],[-0.34765625],[1],[0],[0],[4.054372200043872],['target'],participant2,001,2024-10-10_19h10.18.493,D3_exp5_VisualSearchExperiment,2024.1.5,None,2024-10-10 19h10.30.808189 +0530,
192,0,192,0,547.2881760000018,,547.2507583000115,10,547.2881760000018,547.2881760000018,0.027515799971297383,549.6145437000087,[-0.2747395833333333],[-0.037760416666666664],[1],[0],[0],[2.336509700049646],['target'],participant2,001,2024-10-10_19h10.18.493,D3_exp5_VisualSearchExperiment,2024.1.5,None,2024-10-10 19h10.30.808189 +0530,
193,0,193,0,549.6547351999907,,549.6171535000321,10,549.6547351999907,549.6547351999907,0.02793250000104308,551.8646503000055,[-0.08854166666666667],[-0.14713541666666666],[1],[0],[0],[2.2198137000086717],['target'],participant2,001,2024-10-10_19h10.18.493,D3_exp5_VisualSearchExperiment,2024.1.5,None,2024-10-10 19h10.30.808189 +0530,
194,0,194,0,551.9044563000207,,551.8672910000314,10,551.9044563000207,551.9044563000207,0.027737600030377507,555.2987176000024,[0.015625],[-0.3854166666666667],[1],[0],[0],[3.4039458999759518],['target'],participant2,001,2024-10-10_19h10.18.493,D3_exp5_VisualSearchExperiment,2024.1.5,None,2024-10-10 19h10.30.808189 +0530,
195,0,195,0,555.3660493000061,,555.3013379999902,10,555.3660493000061,555.3660493000061,0.054958000022452325,560.3492059999844,[0.2994791666666667],[-0.3880208333333333],[1],[0],[0],[4.993134199990891],['target'],participant2,001,2024-10-10_19h10.18.493,D3_exp5_VisualSearchExperiment,2024.1.5,None,2024-10-10 19h10.30.808189 +0530,
196,0,196,0,560.3718406999833,,560.3518462000065,5,560.3718406999833,560.3718406999833,0.014073199999984354,562.9824892000179,[-0.20703125],[-0.09114583333333333],[1],[0],[0],[2.616791500011459],['target'],participant2,001,2024-10-10_19h10.18.493,D3_exp5_VisualSearchExperiment,2024.1.5,None,2024-10-10 19h10.30.808189 +0530,
197,0,197,0,563.0234534000047,,562.985120700032,10,563.0234534000047,563.0234534000047,0.028428099991288036,565.4329895999981,[0.06380208333333333],[-0.09635416666666667],[1],[0],[0],[2.4196724999928847],['target'],participant2,001,2024-10-10_19h10.18.493,D3_exp5_VisualSearchExperiment,2024.1.5,None,2024-10-10 19h10.30.808189 +0530,
198,0,198,0,565.455792599998,,565.435617399984,5,565.455792599998,565.455792599998,0.014258000010158867,568.516850200016,[0.4557291666666667],[-0.16145833333333334],[1],[0],[0],[3.0671911999816075],['target'],participant2,001,2024-10-10_19h10.18.493,D3_exp5_VisualSearchExperiment,2024.1.5,None,2024-10-10 19h10.30.808189 +0530,
199,0,199,0,568.5397153000231,,568.5195330000133,5,568.5397153000231,568.5397153000231,0.014294300053734332,571.6500630999799,[0.0],[0.3528645833333333],[1],[0],[0],[3.116506799997296],['target'],participant2,001,2024-10-10_19h10.18.493,D3_exp5_VisualSearchExperiment,2024.1.5,None,2024-10-10 19h10.30.808189 +0530,
