delay,freq,condition,trials.thisRepN,trials.thisTrialN,trials.thisN,trials.thisIndex,thisRow.t,notes,trial.started,fixation.started,polygon_2.started,key_resp.started,fixation.stopped,trial.stopped,key_resp.keys,key_resp.rt,key_resp.duration,beep.started,sound_1.started,sound_1.stopped,beep.stopped,response.started,display_text.started,textbox.started,button.started,response.stopped,textbox.text,button.numClicks,button.timesOn,button.timesOff,participant,session,Exclusion,date,expName,psychopyVersion,frameRate,expStart
0.4,1000,exp,0,0,0,4,0.0555912,,0.0490416,0.0555912,1.0109186,1.0109186,1.0608708,5.4485556,space,4.4299411,None,5.4821637,5.881205667,6.3594905,6.1836653,6.1837069,6.3594905,6.3594905,6.3594905,10.4928212,300,1,[4.155493899999783],[4.155514000000039],Participant 1,1,N/A,2024-11-14_18h36.47.251,IntentionalBinding,2024.1.5,None,2024-11-14 18h37.22.005954 +0530
0.7,1000,exp,0,1,1,8,10.5005181,,10.4965849,10.5005181,11.5113876,11.5113876,11.5113876,11.6798167,space,None,None,11.6812882,12.39508257,12.7056061,12.6954998,12.695527,12.7056061,12.7056061,12.7056061,14.6804222,100,1,[1.9833087999995769],[1.983321600000636],Participant 1,1,N/A,2024-11-14_18h36.47.251,IntentionalBinding,2024.1.5,None,2024-11-14 18h37.22.005954 +0530
0.7,1000,exp,0,2,2,11,14.6954218,,14.6816792,14.6954218,15.695494,15.695494,15.695494,17.5136354,space,1.8049991,None,17.5144068,18.22888567,18.5554909,18.5314078,18.531449,18.5554909,18.5554909,18.5554909,23.0483889,"299
",1,[4.514327700000649],[4.51434270000027],Participant 1,1,N/A,2024-11-14_18h36.47.251,IntentionalBinding,2024.1.5,None,2024-11-14 18h37.22.005954 +0530
0.1,1000,exp,0,3,3,6,23.0632347,,23.050214,23.0632347,24.0631413,24.0631413,24.0631413,24.3984729,space,0.3272942,None,24.399425,24.51321607,24.8362021,24.8114353,24.8114768,24.8362021,24.8362021,24.8362021,29.4673188,"222
",1,[4.652096100000563],[4.6521149999989575],Participant 1,1,N/A,2024-11-14_18h36.47.251,IntentionalBinding,2024.1.5,None,2024-11-14 18h37.22.005954 +0530
0.4,400,unexp,0,4,4,1,29.4805434,,29.4692853,29.4805434,30.480458,30.480458,30.480458,30.5323409,space,0.0350293,None,30.5332439,30.94703947,31.2859216,31.2600244,31.2600735,31.2859216,31.2859216,31.2859216,34.8323411,"666
",1,[3.5696788000004744],[3.56968820000111],Participant 1,1,N/A,2024-11-14_18h36.47.251,IntentionalBinding,2024.1.5,None,2024-11-14 18h37.22.005954 +0530
0.7,400,unexp,0,5,5,2,34.8473901,,34.8332586,34.8473901,35.8476635,35.8476635,35.8476635,38.4997514,space,2.6411007,None,38.5005879,39.21471467,39.5375466,39.5114784,39.5115467,39.5375466,39.5375466,39.5375466,45.9338864,"123
",1,[6.418743300000642],[6.418760000000475],Participant 1,1,N/A,2024-11-14_18h36.47.251,IntentionalBinding,2024.1.5,None,2024-11-14 18h37.22.005954 +0530
0.1,1000,exp,0,6,6,3,45.948886,,45.935847,45.948886,46.9488347,46.9488347,46.9488347,47.0171358,space,None,None,47.0179222,47.13205857,47.45621,47.4323426,47.4323911,47.45621,47.45621,47.45621,50.8847572,"666
",1,[3.4491304000002856],[3.4491477999999915],Participant 1,1,N/A,2024-11-14_18h36.47.251,IntentionalBinding,2024.1.5,None,2024-11-14 18h37.22.005954 +0530
0.4,1000,exp,0,7,7,7,50.8996183,,50.8866607,50.8996183,51.8993433,51.8993433,51.8993433,54.0182112,space,2.1129736,None,54.018975,54.43278317,54.7521159,54.7311861,54.7312389,54.7521159,54.7521159,54.7521159,57.8183272,456,1,[3.0843065999997634],[3.084321700000146],Participant 1,1,N/A,2024-11-14_18h36.47.251,IntentionalBinding,2024.1.5,None,2024-11-14 18h37.22.005954 +0530
0.1,1000,exp,0,8,8,9,57.8333431,,57.8196549,57.8333431,58.8339119,58.8339119,58.8339119,60.1523836,space,1.3087003,None,60.1533392,60.26704027,60.5844975,60.5615841,60.5616255,60.5844975,60.5844975,60.5844975,62.9022618,345,1,[2.338212399999975],[2.3382266000007803],Participant 1,1,N/A,2024-11-14_18h36.47.251,IntentionalBinding,2024.1.5,None,2024-11-14 18h37.22.005954 +0530
0.1,400,unexp,0,9,9,0,62.9171876,,62.9036346,62.9171876,63.917452,63.917452,63.917452,64.5859282,space,0.6535253,None,64.5867954,64.70061017,65.0235526,65.0014133,65.001454,65.0235526,65.0235526,65.0235526,69.003389,534,1,[3.999086100000568],[3.999102600000697],Participant 1,1,N/A,2024-11-14_18h36.47.251,IntentionalBinding,2024.1.5,None,2024-11-14 18h37.22.005954 +0530
0.4,1000,exp,0,10,10,10,69.0178745,,69.0051611,69.0178745,70.0182757,70.0182757,70.0182757,71.0376991,space,1.014207,None,71.039279,71.45133357,71.7744692,71.7535182,71.7535642,71.7744692,71.7744692,71.7744692,74.8043603,382,1,[3.048363600000812],[3.0483827000007295],Participant 1,1,N/A,2024-11-14_18h36.47.251,IntentionalBinding,2024.1.5,None,2024-11-14 18h37.22.005954 +0530
0.7,1000,exp,0,11,11,5,74.8183375,,74.8059502,74.8183375,75.8189017,75.8189017,75.8189017,76.6043331,space,0.7821095,None,76.605318,77.31840397,77.6368735,77.6160338,77.6160821,77.6368735,77.6368735,77.6368735,82.5215482,728,1,[4.9024750999997195],[4.902502599999934],Participant 1,1,N/A,2024-11-14_18h36.47.251,IntentionalBinding,2024.1.5,None,2024-11-14 18h37.22.005954 +0530
0.1,1000,exp,1,0,12,6,82.535843,,82.5240662,82.535843,83.5360818,83.5360818,83.5360818,86.288788,space,2.7388212,None,86.2896564,86.40274857,86.7221316,86.7019903,86.7020322,86.7221316,86.7221316,86.7221316,90.2382706,434,1,[3.533653200000117],[3.533669500000542],Participant 1,1,N/A,2024-11-14_18h36.47.251,IntentionalBinding,2024.1.5,None,2024-11-14 18h37.22.005954 +0530
0.4,400,unexp,1,1,13,1,90.2535188,,90.2398883,90.2535188,91.2533811,91.2533811,91.2533811,91.8884517,space,0.6199566,None,91.889306,92.30334537,92.6067437,92.5886439,92.588695,92.6067437,92.6067437,92.6067437,95.8388301,658,1,[3.2480158000016672],[3.2480291000010766],Participant 1,1,N/A,2024-11-14_18h36.47.251,IntentionalBinding,2024.1.5,None,2024-11-14 18h37.22.005954 +0530
0.4,1000,exp,1,2,14,10,95.8538534,,95.8400904,95.8538534,96.8540851,96.8540851,96.8540851,98.1891172,space,1.3182644,None,98.1897899,98.60428387,,98.8552068,98.8552294,98.8704848,98.8704848,98.8704848,101.2411702,728,1,[2.3839170999999624],[2.383935300000303],Participant 1,1,N/A,2024-11-14_18h36.47.251,IntentionalBinding,2024.1.5,None,2024-11-14 18h37.22.005954 +0530
0.1,400,unexp,1,3,15,0,101.254317,,101.2429927,101.254317,102.254494,102.254494,102.254494,103.1556181,space,0.8987957,None,103.1561059,103.2711978,103.579886,103.556992,103.557031,103.579886,103.579886,103.579886,106.7242902,363,1,[3.164706400000796],[3.164722500001517],Participant 1,1,N/A,2024-11-14_18h36.47.251,IntentionalBinding,2024.1.5,None,2024-11-14 18h37.22.005954 +0530
0.1,1000,exp,1,4,16,9,106.7387245,,106.7261841,106.7387245,107.7388015,107.7388015,107.7388015,109.5907205,space,1.8460573,None,109.5915863,109.705332,110.0249614,110.0022629,110.0023081,110.0249614,110.0249614,110.0249614,116.5737216,900,1,[6.568916000000172],[6.568929900000512],Participant 1,1,N/A,2024-11-14_18h36.47.251,IntentionalBinding,2024.1.5,None,2024-11-14 18h37.22.005954 +0530
0.7,400,unexp,1,5,17,2,116.5895434,,116.5748904,116.5895434,117.5896706,117.5896706,117.5896706,118.0576583,space,0.4551685,None,118.0583144,118.7726725,119.0903709,119.0576084,119.0576807,119.0903709,119.0903709,119.0903709,122.9787594,546,1,[3.917792599999302],[3.9178093999998964],Participant 1,1,N/A,2024-11-14_18h36.47.251,IntentionalBinding,2024.1.5,None,2024-11-14 18h37.22.005954 +0530
0.4,1000,exp,1,6,18,7,122.9905895,,122.9804139,122.9905895,123.9904309,123.9904309,123.9904309,124.6264809,space,0.6328005,None,124.6273977,125.0402983,125.3672268,125.3417236,125.3417674,125.3672268,125.3672268,125.3672268,128.1590481,455,1,[2.8145373000006657],[2.8145524999999907],Participant 1,1,N/A,2024-11-14_18h36.47.251,IntentionalBinding,2024.1.5,None,2024-11-14 18h37.22.005954 +0530
0.1,1000,exp,1,7,19,3,128.1741695,,128.1606361,128.1741695,129.1742009,129.1742009,129.1742009,133.8764602,space,4.6880933,None,133.8772738,133.9912668,134.3140881,134.2912793,134.2913371,134.3140881,134.3140881,134.3140881,138.8099609,454,1,[4.515859299999647],[4.515872900001341],Participant 1,1,N/A,2024-11-14_18h36.47.251,IntentionalBinding,2024.1.5,None,2024-11-14 18h37.22.005954 +0530
0.4,1000,exp,1,8,20,4,138.8252776,,138.8112567,138.8252776,139.8252214,139.8252214,139.8252214,140.4272014,space,0.5884403,None,140.4280319,140.8419347,141.1623033,141.1414337,141.1414749,141.1623033,141.1623033,141.1623033,143.511085,234,1,[2.367109300001175],[2.367127800000162],Participant 1,1,N/A,2024-11-14_18h36.47.251,IntentionalBinding,2024.1.5,None,2024-11-14 18h37.22.005954 +0530
0.7,1000,exp,1,9,21,5,143.525716,,143.5125512,143.525716,144.5257993,144.5257993,144.5257993,145.0610688,space,0.5270434,None,145.061919,145.7761271,146.0917524,146.0717758,146.0718174,146.0917524,146.0917524,146.0917524,149.0780671,245,1,[3.003726499999175],[3.0037420999997266],Participant 1,1,N/A,2024-11-14_18h36.47.251,IntentionalBinding,2024.1.5,None,2024-11-14 18h37.22.005954 +0530
0.7,1000,exp,1,10,22,8,149.0929531,,149.0796165,149.0929531,150.0930782,150.0930782,150.0930782,150.7785455,space,0.6695414,None,150.7795114,151.4935652,151.8125354,151.7922967,151.7923392,151.8125354,151.8125354,151.8125354,154.1122237,346,1,[2.3171055000002525],[2.3171230999996624],Participant 1,1,N/A,2024-11-14_18h36.47.251,IntentionalBinding,2024.1.5,None,2024-11-14 18h37.22.005954 +0530
0.7,1000,exp,1,11,23,11,154.1266927,,154.1138703,154.1266927,155.1276097,155.1276097,155.1276097,155.1624163,space,0.0237794,None,155.1636362,155.8766718,156.1899815,156.1744269,156.1744925,156.1899815,156.1899815,156.1899815,158.9018626,345,1,[2.725035299999945],[2.7250547999992705],Participant 1,1,N/A,2024-11-14_18h36.47.251,IntentionalBinding,2024.1.5,None,2024-11-14 18h37.22.005954 +0530
0.1,1000,exp,2,0,24,9,158.9103174,,158.90392,158.9103174,159.9106898,159.9106898,159.9106898,160.3480658,space,0.4229328,None,160.3491449,160.4607125,160.786005,160.7618896,160.7619496,160.786005,160.786005,160.786005,162.5797744,345,1,[1.814200200000414],[1.8142258000007132],Participant 1,1,N/A,2024-11-14_18h36.47.251,IntentionalBinding,2024.1.5,None,2024-11-14 18h37.22.005954 +0530
0.7,1000,exp,2,1,25,5,162.5944435,,162.5816262,162.5944435,163.5944643,163.5944643,163.5944643,164.096384,space,0.4955799,None,164.0971463,164.811411,165.1325039,165.1113484,165.1113929,165.1325039,165.1325039,165.1325039,170.9140944,999,1,[5.7998959999986255],[5.799912499998754],Participant 1,1,N/A,2024-11-14_18h36.47.251,IntentionalBinding,2024.1.5,None,2024-11-14 18h37.22.005954 +0530
0.7,1000,exp,2,2,26,8,170.9284557,,170.9160396,170.9284557,171.9289468,171.9289468,171.9289468,172.8973322,space,0.9540846,None,172.8981056,173.612088,173.9333322,173.9115659,173.9116077,173.9333322,173.9333322,173.9333322,176.128692,1,1,[2.214258300000438],[2.214283400000568],Participant 1,1,N/A,2024-11-14_18h36.47.251,IntentionalBinding,2024.1.5,None,2024-11-14 18h37.22.005954 +0530
0.7,1000,exp,2,3,27,11,176.1352278,,176.1305855,176.1352278,177.1290871,177.1290871,177.145739,177.1979217,space,0.057522,None,177.1987256,177.9124293,178.2322246,178.2117479,178.2117896,178.2322246,178.2322246,178.2322246,180.9649151,0,1,[2.7507126000000426],[2.7507241999992402],Participant 1,1,N/A,2024-11-14_18h36.47.251,IntentionalBinding,2024.1.5,None,2024-11-14 18h37.22.005954 +0530
0.4,1000,exp,2,4,28,4,180.9795869,,180.9661796,180.9795869,181.9797533,181.9797533,181.9797533,182.1151321,space,0.128026,None,182.1161909,182.5293195,182.8443205,182.8225629,182.8226301,182.8443205,182.8443205,182.8443205,185.0812911,999,1,[2.256518700000015],[2.256527900000947],Participant 1,1,N/A,2024-11-14_18h36.47.251,IntentionalBinding,2024.1.5,None,2024-11-14 18h37.22.005954 +0530
0.1,400,unexp,2,5,29,0,185.0966006,,185.0824644,185.0966006,186.0969037,186.0969037,186.0969037,186.6986231,space,0.5958732,None,186.6993864,186.8139675,187.1366808,187.1123452,187.1123938,187.1366808,187.1366808,187.1366808,190.382205,9,1,[3.2674110000007204],[3.2674198999993678],Participant 1,1,N/A,2024-11-14_18h36.47.251,IntentionalBinding,2024.1.5,None,2024-11-14 18h37.22.005954 +0530
0.1,1000,exp,2,6,30,3,190.3971175,,190.3831293,190.3971175,191.3974876,191.3974876,191.3974876,191.8326237,space,0.4222925,None,191.8333906,191.9473206,192.2695175,192.2452789,192.2453402,192.2695175,192.2695175,192.2695175,196.3164654,980,1,[4.0678117999996175],[4.0678258999996615],Participant 1,1,N/A,2024-11-14_18h36.47.251,IntentionalBinding,2024.1.5,None,2024-11-14 18h37.22.005954 +0530
0.7,400,unexp,2,7,31,2,196.331326,,196.3182548,196.331326,197.3308807,197.3308807,197.3308807,199.4506828,space,2.117286,None,199.4515162,200.1650015,200.4834341,200.4617094,200.4617508,200.4834341,200.4834341,200.4834341,204.117868,890,1,[3.6532106999984535],[3.6532322999992175],Participant 1,1,N/A,2024-11-14_18h36.47.251,IntentionalBinding,2024.1.5,None,2024-11-14 18h37.22.005954 +0530
0.4,400,unexp,2,8,32,1,204.1319434,,204.1195361,204.1319434,205.1327857,205.1327857,205.1327857,205.4170165,space,0.2673578,None,205.4180473,205.8321686,206.146783,206.1313253,206.1313582,206.146783,206.146783,206.146783,209.5672374,988,1,[3.4334641999994346],[3.4334780999997747],Participant 1,1,N/A,2024-11-14_18h36.47.251,IntentionalBinding,2024.1.5,None,2024-11-14 18h37.22.005954 +0530
0.1,1000,exp,2,9,33,6,209.5824112,,209.5692549,209.5824112,210.5825833,210.5825833,210.5825833,210.6180097,space,0.0337042,None,210.6185478,210.7325453,211.0778897,211.064559,211.0646159,211.0778897,211.0778897,211.0778897,214.3014953,900,1,[3.234650000000329],[3.234661700000288],Participant 1,1,N/A,2024-11-14_18h36.47.251,IntentionalBinding,2024.1.5,None,2024-11-14 18h37.22.005954 +0530
0.4,1000,exp,2,10,34,10,214.3164896,,214.3026248,214.3164896,215.3168895,215.3168895,215.3168895,215.8186489,space,0.4942761,None,215.8196794,216.2330425,216.556401,216.5317519,216.531811,216.556401,216.556401,216.556401,219.2346805,923,1,[2.6999978000003466],[2.7000067999997555],Participant 1,1,N/A,2024-11-14_18h36.47.251,IntentionalBinding,2024.1.5,None,2024-11-14 18h37.22.005954 +0530
0.4,1000,exp,2,11,35,7,219.2502648,,219.2359096,219.2502648,220.2504256,220.2504256,220.2504256,220.368961,space,None,None,220.3698788,220.7838526,221.1041616,221.0816112,221.0816522,221.1041616,221.1041616,221.1041616,224.2689208,90,1,[3.1843214000000444],[3.1843361999999615],Participant 1,1,N/A,2024-11-14_18h36.47.251,IntentionalBinding,2024.1.5,None,2024-11-14 18h37.22.005954 +0530
0.7,1000,exp,3,0,36,5,224.2840799,,224.2706303,224.2840799,225.2842302,225.2842302,225.2842302,226.5187304,space,1.2270044,None,226.5194137,227.2186293,227.5319761,227.5120093,227.5120665,227.5319761,227.5319761,227.5319761,230.3209742,987,1,[2.8059064999997645],[2.805925599999682],Participant 1,1,N/A,2024-11-14_18h36.47.251,IntentionalBinding,2024.1.5,None,2024-11-14 18h37.22.005954 +0530
0.1,1000,exp,3,1,37,3,230.3347197,,230.322828,230.3347197,231.3346998,231.3346998,231.3346998,233.9034915,space,2.5609674,None,233.9042619,234.0189193,234.3337429,234.3128828,234.3129586,234.3337429,234.3337429,234.3337429,237.0868268,890,1,[2.771837600001163],[2.7718466999995144],Participant 1,1,N/A,2024-11-14_18h36.47.251,IntentionalBinding,2024.1.5,None,2024-11-14 18h37.22.005954 +0530
0.4,1000,exp,3,2,38,10,237.1025331,,237.0877504,237.1025331,238.1022567,238.1022567,238.1022567,239.6042396,space,1.4870202,None,239.6051852,240.0190241,240.3446849,240.3221387,240.322181,240.3446849,240.3446849,240.3446849,244.9045576,890,1,[4.5796891000009055],[4.579705500000273],Participant 1,1,N/A,2024-11-14_18h36.47.251,IntentionalBinding,2024.1.5,None,2024-11-14 18h37.22.005954 +0530
0.1,1000,exp,3,3,39,9,244.9196487,,244.9062546,244.9196487,245.9195581,245.9195581,245.9195581,247.0051285,space,1.0818656,None,247.0059397,247.1197082,247.4425365,247.4218744,247.4219159,247.4425365,247.4425365,247.4425365,250.8053607,998,1,[3.3805493999989267],[3.3805656999993516],Participant 1,1,N/A,2024-11-14_18h36.47.251,IntentionalBinding,2024.1.5,None,2024-11-14 18h37.22.005954 +0530
0.4,1000,exp,3,4,40,7,250.8202242,,250.8071213,250.8202242,251.8203808,251.8203808,251.8203808,252.4887547,space,0.6606408,None,252.4896868,252.9037828,253.2230778,253.2017429,253.2017866,253.2230778,253.2230778,253.2230778,255.9222473,245,1,[2.7177948000007746],[2.717806600001495],Participant 1,1,N/A,2024-11-14_18h36.47.251,IntentionalBinding,2024.1.5,None,2024-11-14 18h37.22.005954 +0530
0.4,400,unexp,3,5,41,1,255.9373989,,255.9234304,255.9373989,256.9373626,256.9373626,256.9373626,257.6227492,space,0.682442,None,257.6237097,258.0376639,258.3581091,258.3379212,258.3379625,258.3581091,258.3581091,258.3581091,264.5412248,572,1,[6.200554399998509],[6.200579399999697],Participant 1,1,N/A,2024-11-14_18h36.47.251,IntentionalBinding,2024.1.5,None,2024-11-14 18h37.22.005954 +0530
0.7,1000,exp,3,6,42,11,264.5548959,,264.5430655,264.5548959,265.5553229,265.5553229,265.5553229,266.6741781,space,1.1069569,None,266.6749699,267.388706,267.7049854,267.6824664,267.6825071,267.7049854,267.7049854,267.7049854,270.6248148,827,1,[2.9396574000002147],[2.9396753999990324],Participant 1,1,N/A,2024-11-14_18h36.47.251,IntentionalBinding,2024.1.5,None,2024-11-14 18h37.22.005954 +0530
0.7,400,unexp,3,7,43,2,270.6393491,,270.6264933,270.6393491,271.639222,271.639222,271.639222,272.6086351,space,0.9550833,None,272.6095243,273.3226266,273.6433191,273.6216083,273.6216672,273.6433191,273.6433191,273.6433191,276.9088232,82,1,[3.2840748999988136],[3.2840923000003386],Participant 1,1,N/A,2024-11-14_18h36.47.251,IntentionalBinding,2024.1.5,None,2024-11-14 18h37.22.005954 +0530
0.1,400,unexp,3,8,44,0,276.9228589,,276.9105589,276.9228589,277.9230221,277.9230221,277.9230221,278.5926003,space,0.651321,None,278.593425,278.7063116,279.0266652,279.0018288,279.0018703,279.0266652,279.0266652,279.0266652,281.5922861,899,1,[2.5876669000008405],[2.5876843000005465],Participant 1,1,N/A,2024-11-14_18h36.47.251,IntentionalBinding,2024.1.5,None,2024-11-14 18h37.22.005954 +0530
0.4,1000,exp,3,9,45,4,281.6069224,,281.5939156,281.6069224,282.6075224,282.6075224,282.6075224,283.3253973,space,0.7081112,None,283.3262398,283.7404283,284.0568605,284.0419001,284.0419404,284.0568605,284.0568605,284.0568605,287.3590112,857,1,[3.3146048999988125],[3.3146175000001676],Participant 1,1,N/A,2024-11-14_18h36.47.251,IntentionalBinding,2024.1.5,None,2024-11-14 18h37.22.005954 +0530
0.1,1000,exp,3,10,46,6,287.3741593,,287.3604585,287.3741593,288.3741807,288.3741807,288.3741807,288.7926023,space,0.4014687,None,288.7935574,288.9074672,289.2231855,289.202218,289.2022575,289.2231855,289.2231855,289.2231855,295.2599715,895,1,[6.054978399999527],[6.054994500000248],Participant 1,1,N/A,2024-11-14_18h36.47.251,IntentionalBinding,2024.1.5,None,2024-11-14 18h37.22.005954 +0530
0.7,1000,exp,3,11,47,8,295.2748926,,295.2615082,295.2748926,296.2751501,296.2751501,296.2751501,296.9102381,space,0.6321317,None,296.911487,297.6258585,297.9425524,297.9223838,297.9224327,297.9425524,297.9425524,297.9425524,300.6945071,528,1,[2.7683680999998614],[2.7683845999999903],Participant 1,1,N/A,2024-11-14_18h36.47.251,IntentionalBinding,2024.1.5,None,2024-11-14 18h37.22.005954 +0530
0.7,400,unexp,4,0,48,2,300.7087793,,300.6963502,300.7087793,301.7095236,301.7095236,301.7095236,302.2605001,space,0.5387959,None,302.2616197,302.9757709,303.2950982,303.2725022,303.2725581,303.2950982,303.2950982,303.2950982,309.4778946,924,1,[6.202566799998749],[6.2025840999995125],Participant 1,1,N/A,2024-11-14_18h36.47.251,IntentionalBinding,2024.1.5,None,2024-11-14 18h37.22.005954 +0530
0.4,1000,exp,4,1,49,10,309.4931157,,309.4793345,309.4931157,310.4933086,310.4933086,310.4933086,311.1449535,space,0.6444283,None,311.1459228,311.5599311,311.884393,311.861705,311.8617478,311.884393,311.884393,311.884393,314.9289164,824,1,[3.064852899999096],[3.064864199999647],Participant 1,1,N/A,2024-11-14_18h36.47.251,IntentionalBinding,2024.1.5,None,2024-11-14 18h37.22.005954 +0530
0.1,1000,exp,4,2,50,6,314.9436217,,314.9300059,314.9436217,315.9439226,315.9439226,315.9439226,316.3129815,space,0.361088,None,316.3138326,316.4269925,316.7439852,316.7215252,316.7215659,316.7439852,316.7439852,316.7439852,318.7624689,829,1,[2.0384494999998424],[2.038465499999802],Participant 1,1,N/A,2024-11-14_18h36.47.251,IntentionalBinding,2024.1.5,None,2024-11-14 18h37.22.005954 +0530
0.1,1000,exp,4,3,51,9,318.7777761,,318.7638875,318.7777761,319.7775121,319.7775121,319.7775121,320.7128512,space,0.9315659,None,320.7138708,320.8273573,321.1462996,321.1220473,321.1221014,321.1462996,321.1462996,321.1462996,323.579754,283,1,[2.454844400001093],[2.4548910000012256],Participant 1,1,N/A,2024-11-14_18h36.47.251,IntentionalBinding,2024.1.5,None,2024-11-14 18h37.22.005954 +0530
0.4,1000,exp,4,4,52,4,323.5945407,,323.5814964,323.5945407,324.5946544,324.5946544,324.5946544,325.7801414,space,1.1776357,None,325.7809579,326.1946789,326.5149862,326.4919891,326.4920301,326.5149862,326.5149862,326.5149862,329.0639344,678,1,[2.569191699998555],[2.5692073999998684],Participant 1,1,N/A,2024-11-14_18h36.47.251,IntentionalBinding,2024.1.5,None,2024-11-14 18h37.22.005954 +0530
0.1,1000,exp,4,5,53,3,329.0785439,,329.06562,329.0785439,330.079143,330.079143,330.079143,330.3805659,space,0.2976382,None,330.3815253,330.495315,330.814325,330.7921066,330.7921509,330.814325,330.814325,330.814325,333.5643234,298,1,[2.7697041999999783],[2.7697171999989223],Participant 1,1,N/A,2024-11-14_18h36.47.251,IntentionalBinding,2024.1.5,None,2024-11-14 18h37.22.005954 +0530
0.1,400,unexp,4,6,54,0,333.5789938,,333.5659263,333.5789938,334.57897,334.57897,334.57897,335.9480125,space,1.3619771,None,335.9490775,336.0625581,336.3872738,336.3619518,336.3620111,336.3872738,336.3872738,336.3872738,338.5323862,238,1,[2.1664409000004525],[2.166465000000244],Participant 1,1,N/A,2024-11-14_18h36.47.251,IntentionalBinding,2024.1.5,None,2024-11-14 18h37.22.005954 +0530
0.7,1000,exp,4,7,55,8,338.546587,,338.5341746,338.546587,339.5463505,339.5463505,339.5463505,340.865712,space,1.3162714,None,340.8667481,341.5800924,341.9021042,341.8820699,341.8821083,341.9021042,341.9021042,341.9021042,343.4148751,999,1,[1.5304706999995688],[1.5304809999997815],Participant 1,1,N/A,2024-11-14_18h36.47.251,IntentionalBinding,2024.1.5,None,2024-11-14 18h37.22.005954 +0530
0.7,1000,exp,4,8,56,5,343.4299191,,343.4158391,343.4299191,344.430649,344.430649,344.430649,345.0151345,space,0.5689505,None,345.0160328,345.7301259,346.0531936,346.0320882,346.0321279,346.0531936,346.0531936,346.0531936,348.4656105,1000,1,[2.4308875000006083],[2.430902199999764],Participant 1,1,N/A,2024-11-14_18h36.47.251,IntentionalBinding,2024.1.5,None,2024-11-14 18h37.22.005954 +0530
0.4,1000,exp,4,9,57,7,348.4805232,,348.4674174,348.4805232,349.480795,349.480795,349.480795,350.0325775,space,0.5360426,None,350.0333458,350.4472693,350.7626711,350.7416834,350.7417574,350.7626711,350.7626711,350.7626711,353.2326911,389,1,[2.488510299999689],[2.488522699999521],Participant 1,1,N/A,2024-11-14_18h36.47.251,IntentionalBinding,2024.1.5,None,2024-11-14 18h37.22.005954 +0530
0.4,400,unexp,4,10,58,1,353.2477616,,353.2339395,353.2477616,354.2476567,354.2476567,354.2476567,354.7165851,space,0.4645432,None,354.7173503,355.1312423,355.4570067,355.4318758,355.4319267,355.4570067,355.4570067,355.4570067,357.7498041,920,1,[2.3148039000006975],[2.3148211000006995],Participant 1,1,N/A,2024-11-14_18h36.47.251,IntentionalBinding,2024.1.5,None,2024-11-14 18h37.22.005954 +0530
0.7,1000,exp,4,11,59,11,357.7647812,,357.7516618,357.7647812,358.7647651,358.7647651,358.7647651,359.5336136,space,0.7584677,None,359.5345985,360.2483726,360.5626493,360.5419434,360.5419854,360.5626493,360.5626493,360.5626493,363.4838109,892,1,[2.9392387000007147],[2.939252599999236],Participant 1,1,N/A,2024-11-14_18h36.47.251,IntentionalBinding,2024.1.5,None,2024-11-14 18h37.22.005954 +0530
0.4,1000,exp,5,0,60,10,363.4987582,,363.4852406,363.4987582,364.4991724,364.4991724,364.4991724,364.5504432,space,None,None,364.5513266,364.9657952,365.2826774,365.2614524,365.2614983,365.2826774,365.2826774,365.2826774,367.8010012,289,1,[2.5366551999995863],[2.5366713000003074],Participant 1,1,N/A,2024-11-14_18h36.47.251,IntentionalBinding,2024.1.5,None,2024-11-14 18h37.22.005954 +0530
0.1,400,unexp,5,1,61,0,367.8161766,,367.8027966,367.8161766,368.816593,368.816593,368.816593,369.1013092,space,0.2793511,None,369.1022217,369.2160934,369.5337771,369.5117541,369.5117945,369.5337771,369.5337771,369.5337771,371.7677757,28,1,[2.253520700000081],[2.2535333999985596],Participant 1,1,N/A,2024-11-14_18h36.47.251,IntentionalBinding,2024.1.5,None,2024-11-14 18h37.22.005954 +0530
0.4,1000,exp,5,2,62,7,371.78291,,371.7690282,371.78291,372.783013,372.783013,372.783013,373.0688422,space,0.2803875,None,373.0696976,373.4830635,373.8034999,373.7818416,373.7818866,373.8034999,373.8034999,373.8034999,376.1182844,289,1,[2.3336397999992187],[2.333649799998966],Participant 1,1,N/A,2024-11-14_18h36.47.251,IntentionalBinding,2024.1.5,None,2024-11-14 18h37.22.005954 +0530
0.1,1000,exp,5,3,63,9,376.1333864,,376.1192987,376.1333864,377.133581,377.133581,377.133581,377.6356116,space,0.4906114,None,377.6365382,377.7505348,378.0758315,378.0527202,378.0527837,378.0758315,378.0758315,378.0758315,382.3854958,305,1,[4.330005300000266],[4.330019299999549],Participant 1,1,N/A,2024-11-14_18h36.47.251,IntentionalBinding,2024.1.5,None,2024-11-14 18h37.22.005954 +0530
0.7,1000,exp,5,4,64,5,382.4008937,,382.3864724,382.4008937,383.401132,383.401132,383.401132,383.9863288,space,0.5694013,None,383.9871465,384.7009063,385.0183251,384.9954682,384.9955512,385.0183251,385.0183251,385.0183251,387.0526735,384,1,[2.054527899999812],[2.054538300000786],Participant 1,1,N/A,2024-11-14_18h36.47.251,IntentionalBinding,2024.1.5,None,2024-11-14 18h37.22.005954 +0530
0.7,1000,exp,5,5,65,8,387.0678708,,387.0538203,387.0678708,388.068026,388.068026,388.068026,390.3367063,space,2.2567578,None,390.3376549,391.0515823,391.3735996,391.3516539,391.3516941,391.3735996,391.3735996,391.3735996,393.8204602,986,1,[2.4659310999995796],[2.465943999999581],Participant 1,1,N/A,2024-11-14_18h36.47.251,IntentionalBinding,2024.1.5,None,2024-11-14 18h37.22.005954 +0530
0.7,400,unexp,5,6,66,2,393.8354379,,393.8218202,393.8354379,394.8355008,394.8355008,394.8355008,395.2378643,space,0.3904724,None,395.238794,395.9521644,396.2773154,396.2522492,396.2522918,396.2773154,396.2773154,396.2773154,398.1874233,891,1,[1.9318689000010636],[1.93188310000005],Participant 1,1,N/A,2024-11-14_18h36.47.251,IntentionalBinding,2024.1.5,None,2024-11-14 18h37.22.005954 +0530
0.1,1000,exp,5,7,67,3,398.2024124,,398.1889294,398.2024124,399.2026426,399.2026426,399.2026426,399.2549045,space,0.0406007,None,399.2559133,399.3692718,399.6951572,399.6716781,399.6717177,399.6951572,399.6951572,399.6951572,401.6710194,189,1,[1.9965910999999323],[1.9966043000003992],Participant 1,1,N/A,2024-11-14_18h36.47.251,IntentionalBinding,2024.1.5,None,2024-11-14 18h37.22.005954 +0530
0.1,1000,exp,5,8,68,6,401.6861298,,401.672321,401.6861298,402.6862071,402.6862071,402.6862071,402.7714096,space,0.0791269,None,402.7723755,402.8861611,403.2037435,403.1819361,403.1819783,403.2037435,403.2037435,403.2037435,407.7218974,1000,1,[4.537278699999661],[4.537295300000551],Participant 1,1,N/A,2024-11-14_18h36.47.251,IntentionalBinding,2024.1.5,None,2024-11-14 18h37.22.005954 +0530
0.7,1000,exp,5,9,69,11,407.7372014,,407.723644,407.7372014,408.7369709,408.7369709,408.7369709,409.0231438,space,0.2840403,None,409.0240481,409.7368796,410.0531361,410.0316079,410.031661,410.0531361,410.0531361,410.0531361,412.1386763,909,1,[2.104433500000596],[2.1044455999999627],Participant 1,1,N/A,2024-11-14_18h36.47.251,IntentionalBinding,2024.1.5,None,2024-11-14 18h37.22.005954 +0530
0.4,1000,exp,5,10,70,4,412.1541787,,412.1398766,412.1541787,413.1539256,413.1539256,413.1539256,413.5891634,space,0.4254941,None,413.5901777,414.0039235,414.3243969,414.3017756,414.3018203,414.3243969,414.3243969,414.3243969,415.9738829,892,1,[1.6689912999991066],[1.6690087000006315],Participant 1,1,N/A,2024-11-14_18h36.47.251,IntentionalBinding,2024.1.5,None,2024-11-14 18h37.22.005954 +0530
0.4,400,unexp,5,11,71,1,415.9876834,,415.9759335,415.9876834,416.9878527,416.9878527,416.9878527,417.4573317,space,0.4523753,None,417.4582385,417.8708165,,418.1424295,418.142475,418.1654845,418.1654845,418.1654845,420.156221,849,1,[2.0116506999984267],[2.011660199999824],Participant 1,1,N/A,2024-11-14_18h36.47.251,IntentionalBinding,2024.1.5,None,2024-11-14 18h37.22.005954 +0530
0.1,1000,exp,6,0,72,3,420.1715039,,420.1570576,420.1715039,421.1718382,421.1718382,421.1718382,423.9400811,space,2.7530793,None,423.9416183,424.0551868,424.3757547,424.3517768,424.3518161,424.3757547,424.3757547,424.3757547,427.1412297,604,1,[2.7862834999996267],[2.78629969999929],Participant 1,1,N/A,2024-11-14_18h36.47.251,IntentionalBinding,2024.1.5,None,2024-11-14 18h37.22.005954 +0530
0.1,400,unexp,6,1,73,0,427.1554274,,427.1427537,427.1554274,428.1556258,428.1556258,428.1556258,428.6411254,space,0.4735812,None,428.6424281,428.7556556,429.0750359,429.0521375,429.052188,429.0750359,429.0750359,429.0750359,432.4653491,492,1,[3.410031400000662],[3.4100567000004958],Participant 1,1,N/A,2024-11-14_18h36.47.251,IntentionalBinding,2024.1.5,None,2024-11-14 18h37.22.005954 +0530
0.7,400,unexp,6,2,74,2,432.4725578,,432.467012,432.4725578,433.4727382,433.4727382,433.4727382,433.9083086,space,0.4245792,None,433.9093699,434.6228836,434.9444025,434.9218468,434.9219051,434.9444025,434.9444025,434.9444025,438.0264184,837,1,[3.101628399999754],[3.1016447999991215],Participant 1,1,N/A,2024-11-14_18h36.47.251,IntentionalBinding,2024.1.5,None,2024-11-14 18h37.22.005954 +0530
0.4,1000,exp,6,3,75,7,438.0400983,,438.0281127,438.0400983,439.0399072,439.0399072,439.0399072,439.3746981,space,0.3314749,None,439.3751725,439.7900432,440.1031452,440.0828375,440.0828784,440.1031452,440.1031452,440.1031452,443.8607221,394,1,[3.7749624000007316],[3.7749888000016654],Participant 1,1,N/A,2024-11-14_18h36.47.251,IntentionalBinding,2024.1.5,None,2024-11-14 18h37.22.005954 +0530
0.7,1000,exp,6,4,76,11,443.8741351,,443.8625825,443.8741351,444.8741217,444.8741217,444.8741217,445.2099017,space,0.3323755,None,445.2112163,445.9239103,446.2329481,446.2215792,446.221605,446.2329481,446.2329481,446.2329481,448.8097739,192,1,[2.5857171999996353],[2.5857293999997637],Participant 1,1,N/A,2024-11-14_18h36.47.251,IntentionalBinding,2024.1.5,None,2024-11-14 18h37.22.005954 +0530
0.4,1000,exp,6,5,77,4,448.8241513,,448.8109549,448.8241513,449.8248341,449.8248341,449.8248341,450.4598416,space,0.6204883,None,450.4617035,450.874515,451.1945922,451.1717188,451.1717634,451.1945922,451.1945922,451.1945922,452.777275,299,1,[1.6025895000002492],[1.6026089999995747],Participant 1,1,N/A,2024-11-14_18h36.47.251,IntentionalBinding,2024.1.5,None,2024-11-14 18h37.22.005954 +0530
0.1,1000,exp,6,6,78,6,452.7919192,,452.7790696,452.7919192,453.7915056,453.7915056,453.7915056,454.1933553,space,0.389617,None,454.1943986,454.3081821,454.631563,454.6119237,454.6119616,454.631563,454.631563,454.631563,456.9101972,904,1,[2.2956780000004073],[2.295690299999478],Participant 1,1,N/A,2024-11-14_18h36.47.251,IntentionalBinding,2024.1.5,None,2024-11-14 18h37.22.005954 +0530
0.7,1000,exp,6,7,79,8,456.9255297,,456.9113765,456.9255297,457.9256637,457.9256637,457.9256637,458.0273298,space,0.0926675,None,458.0287237,458.7420565,459.0636953,459.0419155,459.0419574,459.0636953,459.0636953,459.0636953,461.6946848,299,1,[2.650323699999717],[2.650342199998704],Participant 1,1,N/A,2024-11-14_18h36.47.251,IntentionalBinding,2024.1.5,None,2024-11-14 18h37.22.005954 +0530
0.4,400,unexp,6,8,80,1,461.7089392,,461.6958817,461.7089392,462.7097191,462.7097191,462.7097191,463.5453721,space,0.8331501,None,463.5463027,463.9591809,464.285871,464.2624342,464.2624793,464.285871,464.285871,464.285871,467.0616377,283,1,[2.7965108000007604],[2.7965258000003814],Participant 1,1,N/A,2024-11-14_18h36.47.251,IntentionalBinding,2024.1.5,None,2024-11-14 18h37.22.005954 +0530
0.7,1000,exp,6,9,81,5,467.0761518,,467.062611,467.0761518,468.076414,468.076414,468.076414,468.6287844,space,0.549803,None,468.6295492,469.3434267,469.6632165,469.642564,469.6426073,469.6632165,469.6632165,469.6632165,472.5667426,829,1,[2.921501200000421],[2.9215181999989],Participant 1,1,N/A,2024-11-14_18h36.47.251,IntentionalBinding,2024.1.5,None,2024-11-14 18h37.22.005954 +0530
0.1,1000,exp,6,10,82,9,472.5766511,,472.5683554,472.5766511,473.5770222,473.5770222,473.5770222,474.1453809,space,0.5629763,None,474.1462797,474.2603304,474.583918,474.5622932,474.5623366,474.583918,474.583918,474.583918,478.5625595,283,1,[3.99766930000078],[3.9976851000010356],Participant 1,1,N/A,2024-11-14_18h36.47.251,IntentionalBinding,2024.1.5,None,2024-11-14 18h37.22.005954 +0530
0.4,1000,exp,6,11,83,10,478.5777364,,478.5641594,478.5777364,479.5776087,479.5776087,479.5776087,480.0630126,space,0.4717848,None,480.0638174,480.4776385,480.7943954,480.7717468,480.7717878,480.7943954,480.7943954,480.7943954,485.5969753,999,1,[4.822461800000383],[4.822479200000089],Participant 1,1,N/A,2024-11-14_18h36.47.251,IntentionalBinding,2024.1.5,None,2024-11-14 18h37.22.005954 +0530
0.7,400,unexp,7,0,84,2,485.6117409,,485.598393,485.6117409,486.6128808,486.6128808,486.6128808,487.6310597,space,1.0097899,None,487.6324281,488.345105,488.6673281,488.6447633,488.6448229,488.6673281,488.6673281,488.6673281,490.8145018,839,1,[2.166912199998478],[2.166931799998565],Participant 1,1,N/A,2024-11-14_18h36.47.251,IntentionalBinding,2024.1.5,None,2024-11-14 18h37.22.005954 +0530
0.7,1000,exp,7,1,85,11,490.8287612,,490.8156713,490.8287612,491.8289911,491.8289911,491.8289911,492.0148168,space,0.1737901,None,492.0157304,492.7294784,493.0597557,493.0323086,493.032352,493.0597557,493.0597557,493.0597557,494.9477178,899,1,[1.9129396000007546],[1.9129525999996986],Participant 1,1,N/A,2024-11-14_18h36.47.251,IntentionalBinding,2024.1.5,None,2024-11-14 18h37.22.005954 +0530
0.7,1000,exp,7,2,86,8,494.962476,,494.9488187,494.962476,495.9625812,495.9625812,495.9625812,497.4820765,space,1.5092705,None,497.4829887,498.196258,498.5130206,498.4918467,498.4918903,498.5130206,498.5130206,498.5130206,500.5484779,1000,1,[2.053828300000532],[2.0538436000006186],Participant 1,1,N/A,2024-11-14_18h36.47.251,IntentionalBinding,2024.1.5,None,2024-11-14 18h37.22.005954 +0530
0.4,1000,exp,7,3,87,10,500.563074,,500.5499601,500.563074,501.5633815,501.5633815,501.5633815,501.731702,space,0.1616128,None,501.7325883,502.1469028,502.4643561,502.4416937,502.4417366,502.4643561,502.4643561,502.4643561,504.1158404,90,1,[1.6714545999984693],[1.6714712999983021],Participant 1,1,N/A,2024-11-14_18h36.47.251,IntentionalBinding,2024.1.5,None,2024-11-14 18h37.22.005954 +0530
0.7,1000,exp,7,4,88,5,504.1301156,,504.1176107,504.1301156,505.1303223,505.1303223,505.1303223,505.3656257,space,0.2260897,None,505.3664605,506.0800868,506.3985206,506.3765955,506.3766485,506.3985206,506.3985206,506.3985206,508.1329576,189,1,[1.7537040999995952],[1.7537193999996816],Participant 1,1,N/A,2024-11-14_18h36.47.251,IntentionalBinding,2024.1.5,None,2024-11-14 18h37.22.005954 +0530
0.1,1000,exp,7,5,89,3,508.1472403,,508.1342585,508.1472403,509.1472525,509.1472525,509.1472525,509.2489587,space,0.0967893,None,509.2495751,509.363965,509.684132,509.6639853,509.6640289,509.684132,509.684132,509.684132,511.733016,819,1,[2.0663621999992756],[2.06637899999987],Participant 1,1,N/A,2024-11-14_18h36.47.251,IntentionalBinding,2024.1.5,None,2024-11-14 18h37.22.005954 +0530
0.4,1000,exp,7,6,90,4,511.7475946,,511.7348867,511.7475946,512.7477725,512.7477725,512.7477725,513.2833679,space,0.5190196,None,513.2843013,513.6979913,514.0160016,513.9917307,513.9917716,514.0160016,514.0160016,514.0160016,516.4499762,829,1,[2.455018500000733],[2.4550340000005235],Participant 1,1,N/A,2024-11-14_18h36.47.251,IntentionalBinding,2024.1.5,None,2024-11-14 18h37.22.005954 +0530
0.1,400,unexp,7,7,91,0,516.4650248,,516.4513024,516.4650248,517.4649231,517.4649231,517.4649231,517.9678959,space,0.4972196,None,517.968815,518.0817703,518.4039632,518.3821507,518.3821956,518.4039632,518.4039632,518.4039632,522.9015071,209,1,[4.51612280000154],[4.51613929999985],Participant 1,1,N/A,2024-11-14_18h36.47.251,IntentionalBinding,2024.1.5,None,2024-11-14 18h37.22.005954 +0530
0.1,1000,exp,7,8,92,9,522.9156568,,522.903812,522.9156568,523.9157232,523.9157232,523.9157232,524.4185196,space,0.5001399,None,524.4192881,524.532901,524.8532105,524.832038,524.8320788,524.8532105,524.8532105,524.8532105,530.1674431,215,1,[5.332945699999982],[5.332957499998884],Participant 1,1,N/A,2024-11-14_18h36.47.251,IntentionalBinding,2024.1.5,None,2024-11-14 18h37.22.005954 +0530
0.4,400,unexp,7,9,93,1,530.1828371,,530.1685723,530.1828371,531.1831412,531.1831412,531.1831412,531.5851023,space,0.3904569,None,531.5859921,531.9995411,,532.2642572,532.2642843,532.2777249,532.2777249,532.2777249,534.8354671,890,1,[2.569191900000078],[2.5692087000006723],Participant 1,1,N/A,2024-11-14_18h36.47.251,IntentionalBinding,2024.1.5,None,2024-11-14 18h37.22.005954 +0530
0.1,1000,exp,7,10,94,6,534.8499093,,534.8367188,534.8499093,535.8500969,535.8500969,535.8500969,536.4354318,space,0.5739851,None,536.4363972,536.55016,536.8715408,536.852155,536.8521948,536.8715408,536.8715408,536.8715408,540.5200812,789,1,[3.6651051999997435],[3.665122100001099],Participant 1,1,N/A,2024-11-14_18h36.47.251,IntentionalBinding,2024.1.5,None,2024-11-14 18h37.22.005954 +0530
0.4,1000,exp,7,11,95,7,540.5338891,,540.5218992,540.5338891,541.5342473,541.5342473,541.5342473,541.6206233,space,0.0826811,None,541.6214551,542.0346478,542.358313,542.3327366,542.3328061,542.358313,542.358313,542.358313,543.7695099,891,1,[1.4333636999999726],[1.4333776000003127],Participant 1,1,N/A,2024-11-14_18h36.47.251,IntentionalBinding,2024.1.5,None,2024-11-14 18h37.22.005954 +0530
0.1,1000,exp,8,0,96,6,543.7842744,,543.7708412,543.7842744,544.7843834,544.7843834,544.7843834,545.3369203,space,0.5495594,None,545.3376966,545.4512751,545.7760063,545.7521927,545.7527371,545.7760063,545.7760063,545.7760063,550.2038254,839,1,[4.4482652000006055],[4.448280500000692],Participant 1,1,N/A,2024-11-14_18h36.47.251,IntentionalBinding,2024.1.5,None,2024-11-14 18h37.22.005954 +0530
0.7,400,unexp,8,1,97,2,550.2184239,,550.2056751,550.2184239,551.218516,551.218516,551.218516,551.854513,space,0.6337113,None,551.8553393,552.5686872,552.889776,552.8657768,552.8658189,552.889776,552.889776,552.889776,554.4537197,819,1,[1.5847372999996878],[1.5847490999985894],Participant 1,1,N/A,2024-11-14_18h36.47.251,IntentionalBinding,2024.1.5,None,2024-11-14 18h37.22.005954 +0530
0.4,1000,exp,8,2,98,4,554.4687664,,554.454875,554.4687664,555.4688862,555.4688862,555.4688862,555.9875875,space,0.5070913,None,555.9883749,556.4024005,,556.6825137,556.6825538,556.704449,556.704449,556.704449,558.5708119,900,1,[1.8855048999994324],[1.8855165999993915],Participant 1,1,N/A,2024-11-14_18h36.47.251,IntentionalBinding,2024.1.5,None,2024-11-14 18h37.22.005954 +0530
0.7,1000,exp,8,3,99,5,558.5861118,,558.5719085,558.5861118,559.5860618,559.5860618,559.5860618,560.0378824,space,0.4426672,None,560.0387708,560.7527506,561.0758717,561.0527431,561.05279,561.0758717,561.0758717,561.0758717,563.1543428,901,1,[2.0991394000011496],[2.099152300001151],Participant 1,1,N/A,2024-11-14_18h36.47.251,IntentionalBinding,2024.1.5,None,2024-11-14 18h37.22.005954 +0530
0.4,400,unexp,8,4,100,1,563.1696434,,563.1554596,563.1696434,564.1697604,564.1697604,564.1697604,564.5216539,space,0.3390091,None,564.5237374,564.9369263,565.2533141,565.231926,565.2319672,565.2533141,565.2533141,565.2533141,569.9723372,"89 
",1,[4.737815399999818],[4.737833299999693],Participant 1,1,N/A,2024-11-14_18h36.47.251,IntentionalBinding,2024.1.5,None,2024-11-14 18h37.22.005954 +0530
0.7,1000,exp,8,5,101,11,569.9872756,,569.9744721,569.9872756,570.9875099,570.9875099,570.9875099,571.2058771,space,0.2045594,None,571.2068249,571.9207755,572.2471518,572.2219086,572.221952,572.2471518,572.2471518,572.2471518,574.4571822,819,1,[2.2322979000000487],[2.232316499999797],Participant 1,1,N/A,2024-11-14_18h36.47.251,IntentionalBinding,2024.1.5,None,2024-11-14 18h37.22.005954 +0530
0.1,1000,exp,8,6,102,3,574.4709579,,574.4591247,574.4709579,575.4710524,575.4710524,575.4710524,575.8561835,space,0.3714718,None,575.8571355,575.970985,576.294852,576.2721362,576.2721783,576.294852,576.294852,576.294852,578.7901449,124,1,[2.514959199999794],[2.5149756999999227],Participant 1,1,N/A,2024-11-14_18h36.47.251,IntentionalBinding,2024.1.5,None,2024-11-14 18h37.22.005954 +0530
0.1,400,unexp,8,7,103,0,578.8049354,,578.7920469,578.8049354,579.8048934,579.8048934,579.8048934,580.3400859,space,0.5274948,None,580.3410469,580.4548612,580.7732548,580.751823,580.7518652,580.7732548,580.7732548,580.7732548,582.5751245,45,1,[1.8200228000005154],[1.82004120000056],Participant 1,1,N/A,2024-11-14_18h36.47.251,IntentionalBinding,2024.1.5,None,2024-11-14 18h37.22.005954 +0530
0.4,1000,exp,8,8,104,7,582.5886842,,582.5774339,582.5886842,583.5891884,583.5891884,583.5891884,583.9740829,space,0.3690597,None,583.9751131,584.3891346,584.7158848,584.6921605,584.6922157,584.7158848,584.7158848,584.7158848,586.9755717,566,1,[2.279017599999861],[2.2790328999999474],Participant 1,1,N/A,2024-11-14_18h36.47.251,IntentionalBinding,2024.1.5,None,2024-11-14 18h37.22.005954 +0530
0.1,1000,exp,8,9,105,9,586.9887997,,586.9770736,586.9887997,587.9891816,587.9891816,587.9891816,588.1752859,space,0.1830298,None,588.1763125,588.2900964,588.6143835,588.5922497,588.5922919,588.6143835,588.6143835,588.6143835,590.1738891,45,1,[1.5790347999991354],[1.5790464999990945],Participant 1,1,N/A,2024-11-14_18h36.47.251,IntentionalBinding,2024.1.5,None,2024-11-14 18h37.22.005954 +0530
0.7,1000,exp,8,10,106,8,590.1892669,,590.1751873,590.1892669,591.1893249,591.1893249,591.1893249,591.6089267,space,0.4174757,None,591.6098119,592.3227072,592.6411807,592.6219196,592.6219618,592.6411807,592.6411807,592.6411807,595.1754512,678,1,[2.551021100000071],[2.551037400000496],Participant 1,1,N/A,2024-11-14_18h36.47.251,IntentionalBinding,2024.1.5,None,2024-11-14 18h37.22.005954 +0530
0.4,1000,exp,8,11,107,10,595.1896538,,595.1770552,595.1896538,596.1900834,596.1900834,596.1900834,596.7921035,space,0.5841351,None,596.7930556,597.2065195,597.5266312,597.5021937,597.5022397,597.5266312,597.5266312,597.5266312,599.8428524,734,1,[2.3369636999996146],[2.3369800000000396],Participant 1,1,N/A,2024-11-14_18h36.47.251,IntentionalBinding,2024.1.5,None,2024-11-14 18h37.22.005954 +0530
0.4,1000,exp,9,0,108,7,599.8572667,,599.8447576,599.8572667,600.8570925,600.8570925,600.8570925,601.39289,space,0.5327111,None,601.3936371,601.8069881,602.1246755,602.1026893,602.1027471,602.1246755,602.1246755,602.1246755,603.7091372,785,1,[1.6037655000000086],[1.6037806000003911],Participant 1,1,N/A,2024-11-14_18h36.47.251,IntentionalBinding,2024.1.5,None,2024-11-14 18h37.22.005954 +0530
0.7,1000,exp,9,1,109,11,603.7239511,,603.7105112,603.7239511,604.7242134,604.7242134,604.7242134,604.8428102,space,0.1061388,None,604.8437493,605.5574797,605.873184,605.8525908,605.8526304,605.873184,605.873184,605.873184,607.8937685,644,1,[2.037279399999534],[2.0372956000010163],Participant 1,1,N/A,2024-11-14_18h36.47.251,IntentionalBinding,2024.1.5,None,2024-11-14 18h37.22.005954 +0530
0.4,1000,exp,9,2,110,4,607.9076517,,607.8955718,607.9076517,608.9078713,608.9078713,608.9078713,609.7431471,space,0.8242505,None,609.7439809,610.1585618,610.4742391,610.4524031,610.4524444,610.4742391,610.4742391,610.4742391,612.9104514,34,1,[2.455222499998854],[2.4552496999986033],Participant 1,1,N/A,2024-11-14_18h36.47.251,IntentionalBinding,2024.1.5,None,2024-11-14 18h37.22.005954 +0530
0.1,1000,exp,9,3,111,9,612.9251546,,612.9123458,612.9251546,613.9251581,613.9251581,613.9251581,614.5608284,space,0.6328854,None,614.5616517,614.6754045,614.9950756,614.9727083,614.9727533,614.9950756,614.9950756,614.9950756,617.8773186,764,1,[2.9015010000002803],[2.9015225999992253],Participant 1,1,N/A,2024-11-14_18h36.47.251,IntentionalBinding,2024.1.5,None,2024-11-14 18h37.22.005954 +0530
0.1,400,unexp,9,4,112,0,617.892175,,617.879162,617.892175,618.8923264,618.8923264,618.8923264,619.5608886,space,0.6524219,None,619.5616629,619.6758252,619.9943765,619.9722524,619.9723088,619.9943765,619.9943765,619.9943765,623.294167,234,1,[3.3193301999999676],[3.319341800000984],Participant 1,1,N/A,2024-11-14_18h36.47.251,IntentionalBinding,2024.1.5,None,2024-11-14 18h37.22.005954 +0530
0.7,400,unexp,9,5,113,2,623.30943,,623.2952417,623.30943,624.3093613,624.3093613,624.3093613,624.6949207,space,0.3826097,None,624.6958675,625.4098849,625.7336394,625.7119288,625.7119857,625.7336394,625.7336394,625.7336394,627.7958309,64,1,[2.08097159999852],[2.0809890999989875],Participant 1,1,N/A,2024-11-14_18h36.47.251,IntentionalBinding,2024.1.5,None,2024-11-14 18h37.22.005954 +0530
0.4,400,unexp,9,6,114,1,627.8100011,,627.7975735,627.8100011,628.8099643,628.8099643,628.8099643,629.4952309,space,0.6738019,None,629.4959981,629.9100442,630.2352791,630.2127257,630.2127693,630.2352791,630.2352791,630.2352791,633.7789929,0,1,[3.5632987999997567],[3.5633168000003934],Participant 1,1,N/A,2024-11-14_18h36.47.251,IntentionalBinding,2024.1.5,None,2024-11-14 18h37.22.005954 +0530
0.7,1000,exp,9,7,115,8,633.7936819,,633.7808454,633.7936819,634.7937893,634.7937893,634.7937893,636.9792711,space,2.1825529,None,636.9806282,637.694316,638.013324,637.9923501,637.9923901,638.013324,638.013324,638.013324,640.3144892,135,1,[2.319052799999554],[2.3190744999992603],Participant 1,1,N/A,2024-11-14_18h36.47.251,IntentionalBinding,2024.1.5,None,2024-11-14 18h37.22.005954 +0530
0.1,1000,exp,9,8,116,3,640.3278304,,640.3161561,640.3278304,641.3280406,641.3280406,641.3280406,641.5964836,space,0.2546257,None,641.597372,641.7112831,642.0352685,642.0125934,642.0126424,642.0352685,642.0352685,642.0352685,644.1971775,1000,1,[2.1815886000003957],[2.1816060000001016],Participant 1,1,N/A,2024-11-14_18h36.47.251,IntentionalBinding,2024.1.5,None,2024-11-14 18h37.22.005954 +0530
0.7,1000,exp,9,9,117,5,644.2118722,,644.1989032,644.2118722,645.2116304,645.2116304,645.2116304,646.04725,space,0.8250926,None,646.0480133,646.7621752,647.0894696,647.0619089,647.0619481,647.0894696,647.0894696,647.0894696,648.1636368,56,1,[1.098871500000314],[1.0988863000002311],Participant 1,1,N/A,2024-11-14_18h36.47.251,IntentionalBinding,2024.1.5,None,2024-11-14 18h37.22.005954 +0530
0.4,1000,exp,9,10,118,10,648.1793041,,648.1650531,648.1793041,649.1788452,649.1788452,649.1788452,649.4476605,space,0.263221,None,649.448757,649.8619259,650.1853384,650.163403,650.1634491,650.1853384,650.1853384,650.1853384,653.4974937,567,1,[3.3314213000012387],[3.3314362000000983],Participant 1,1,N/A,2024-11-14_18h36.47.251,IntentionalBinding,2024.1.5,None,2024-11-14 18h37.22.005954 +0530
0.1,1000,exp,9,11,119,6,653.5124198,,653.4988711,653.5124198,654.5126568,654.5126568,654.5126568,654.6153785,space,0.0926654,None,654.6162971,654.7295041,655.0541492,655.0323765,655.0324166,655.0541492,655.0541492,655.0541492,657.881725,146,1,[2.846810600000026],[2.8468283000001975],Participant 1,1,N/A,2024-11-14_18h36.47.251,IntentionalBinding,2024.1.5,None,2024-11-14 18h37.22.005954 +0530
0.1,1000,exp,10,0,120,9,657.8962011,,657.882837,657.8962011,658.8966805,658.8966805,658.8966805,659.3649402,space,0.4536029,None,659.3657191,659.4798145,659.8032249,659.7828813,659.7829219,659.8032249,659.8032249,659.8032249,662.0987916,976,1,[2.31359220000013],[2.313604499999201],Participant 1,1,N/A,2024-11-14_18h36.47.251,IntentionalBinding,2024.1.5,None,2024-11-14 18h37.22.005954 +0530
0.4,1000,exp,10,1,121,7,662.1134337,,662.0998094,662.1134337,663.1137058,663.1137058,663.1137058,663.8152468,space,0.6860635,None,663.8161461,664.2301834,664.5543388,664.5326455,664.532692,664.5543388,664.5543388,664.5543388,666.683201,523,1,[2.1479885000007926],[2.1480043999999907],Participant 1,1,N/A,2024-11-14_18h36.47.251,IntentionalBinding,2024.1.5,None,2024-11-14 18h37.22.005954 +0530
0.4,400,unexp,10,2,122,1,666.6971006,,666.684601,666.6971006,667.6977824,667.6977824,667.6977824,668.1172118,space,0.4017032,None,668.1182152,668.5308103,668.8561209,668.8318632,668.8319031,668.8561209,668.8561209,668.8561209,671.5504355,523,1,[2.7153197999996337],[2.7153438000004826],Participant 1,1,N/A,2024-11-14_18h36.47.251,IntentionalBinding,2024.1.5,None,2024-11-14 18h37.22.005954 +0530
0.7,1000,exp,10,3,123,11,671.5644505,,671.552118,671.5644505,672.5645494,672.5645494,672.5645494,673.1164074,space,0.5362377,None,673.1173186,673.8311599,674.1513238,674.1328144,674.1328532,674.1513238,674.1513238,674.1513238,676.1173302,745,1,[1.9817558000013378],[1.98177460000079],Participant 1,1,N/A,2024-11-14_18h36.47.251,IntentionalBinding,2024.1.5,None,2024-11-14 18h37.22.005954 +0530
0.4,1000,exp,10,4,124,4,676.1316496,,676.1190697,676.1316496,677.1320119,677.1320119,677.1320119,677.867815,space,0.7302201,None,677.8687614,678.28178,678.6047968,678.582672,678.5827343,678.6047968,678.6047968,678.6047968,680.7504487,744,1,[2.164965799998754],[2.1649821999999403],Participant 1,1,N/A,2024-11-14_18h36.47.251,IntentionalBinding,2024.1.5,None,2024-11-14 18h37.22.005954 +0530
0.1,1000,exp,10,5,125,3,680.7658896,,680.752872,680.7658896,681.7654055,681.7654055,681.7654055,682.6347172,space,0.8577604,None,682.6357352,682.7490222,683.0746156,683.0523618,683.052405,683.0746156,683.0746156,683.0746156,686.7007008,809,1,[3.645889999999781],[3.6459033000010095],Participant 1,1,N/A,2024-11-14_18h36.47.251,IntentionalBinding,2024.1.5,None,2024-11-14 18h37.22.005954 +0530
0.7,1000,exp,10,6,126,5,686.7163212,,686.7019724,686.7163212,687.7160974,687.7160974,687.7160974,688.334776,space,0.6115315,None,688.3356753,689.0505148,689.3754228,689.3526311,689.3526701,689.3754228,689.3754228,689.3754228,692.5852989,788,1,[3.2299790999986726],[3.2299951999993937],Participant 1,1,N/A,2024-11-14_18h36.47.251,IntentionalBinding,2024.1.5,None,2024-11-14 18h37.22.005954 +0530
0.4,1000,exp,10,7,127,10,692.5999659,,692.5870288,692.5999659,693.6004281,693.6004281,693.6004281,694.1857588,space,0.5742453,None,694.1869252,694.6001079,694.9234111,694.902201,694.9022442,694.9234111,694.9234111,694.9234111,697.1525431,531,1,[2.2475177999986045],[2.2475336999996216],Participant 1,1,N/A,2024-11-14_18h36.47.251,IntentionalBinding,2024.1.5,None,2024-11-14 18h37.22.005954 +0530
0.7,1000,exp,10,8,128,8,697.167415,,697.154176,697.167415,698.1671326,698.1671326,698.1671326,698.8029271,space,0.6243538,None,698.8037877,699.5172883,699.8358283,699.8132928,699.8133552,699.8358283,699.8358283,699.8358283,701.653619,234,1,[1.836915300000328],[1.8369330000004993],Participant 1,1,N/A,2024-11-14_18h36.47.251,IntentionalBinding,2024.1.5,None,2024-11-14 18h37.22.005954 +0530
0.1,400,unexp,10,9,129,0,701.6677467,,701.6556078,701.6677467,702.6676359,702.6676359,702.6676359,703.0196797,space,0.3384877,None,703.0206333,703.1346753,703.4533114,703.4324022,703.4324431,703.4533114,703.4533114,703.4533114,706.3038848,745,1,[2.868811400001505],[2.868833700000323],Participant 1,1,N/A,2024-11-14_18h36.47.251,IntentionalBinding,2024.1.5,None,2024-11-14 18h37.22.005954 +0530
0.1,1000,exp,10,10,130,6,706.3181406,,706.3052466,706.3181406,707.3181654,707.3181654,707.3181654,707.67009,space,0.3472869,None,707.6709235,707.784889,708.1030759,708.0823984,708.082438,708.1030759,708.1030759,708.1030759,711.5707071,478,1,[3.485769800001435],[3.485786300001564],Participant 1,1,N/A,2024-11-14_18h36.47.251,IntentionalBinding,2024.1.5,None,2024-11-14 18h37.22.005954 +0530
0.7,400,unexp,10,11,131,2,711.5854961,,711.5721497,711.5854961,712.5854217,712.5854217,712.5854217,713.2205582,space,0.6233778,None,713.2213364,713.9356164,714.253741,714.232158,714.2321985,714.253741,714.253741,714.253741,716.2708904,633,1,[2.036145199999737],[2.0361709000007977],Participant 1,1,N/A,2024-11-14_18h36.47.251,IntentionalBinding,2024.1.5,None,2024-11-14 18h37.22.005954 +0530
0.4,1000,exp,11,0,132,10,716.285692,,716.2728899,716.285692,717.2859366,717.2859366,717.2859366,717.6377754,space,0.3447164,None,717.6390269,718.0532067,718.3768103,718.3522725,718.3523163,718.3768103,718.3768103,718.3768103,720.8400722,745,1,[2.484579300000405],[2.4846044999994774],Participant 1,1,N/A,2024-11-14_18h36.47.251,IntentionalBinding,2024.1.5,None,2024-11-14 18h37.22.005954 +0530
0.7,1000,exp,11,1,133,5,720.8528187,,720.8429765,720.8528187,721.8529852,721.8529852,721.8529852,722.1711233,space,0.3081564,None,722.1719238,722.8866275,723.2044274,723.182225,723.1822656,723.2044274,723.2044274,723.2044274,725.6387433,631,1,[2.4537788999987242],[2.4537928999998257],Participant 1,1,N/A,2024-11-14_18h36.47.251,IntentionalBinding,2024.1.5,None,2024-11-14 18h37.22.005954 +0530
0.4,400,unexp,11,2,134,1,725.6534123,,725.6406734,725.6534123,726.6537848,726.6537848,726.6537848,726.7226522,space,0.0663518,None,726.7234054,727.1367439,727.4543163,727.4321837,727.432226,727.4543163,727.4543163,727.4543163,729.7387461,345,1,[2.304271700000754],[2.304284400001052],Participant 1,1,N/A,2024-11-14_18h36.47.251,IntentionalBinding,2024.1.5,None,2024-11-14 18h37.22.005954 +0530
0.1,1000,exp,11,3,135,6,729.7540189,,729.740094,729.7540189,730.754096,730.754096,730.754096,731.1728029,space,0.4016573,None,731.173746,731.2873133,731.6042072,731.5819891,731.5820297,731.6042072,731.6042072,731.6042072,734.555622,788,1,[2.9713829000011174],[2.9713940000001458],Participant 1,1,N/A,2024-11-14_18h36.47.251,IntentionalBinding,2024.1.5,None,2024-11-14 18h37.22.005954 +0530
0.1,1000,exp,11,4,136,9,734.5711783,,734.5567571,734.5711783,735.5714426,735.5714426,735.5714426,736.5065022,space,0.9179963,None,736.5074187,736.6211317,736.9365692,736.9150821,736.9151342,736.9365692,736.9365692,736.9365692,740.5571587,1000,1,[3.6392137999991974],[3.6392388999993273],Participant 1,1,N/A,2024-11-14_18h36.47.251,IntentionalBinding,2024.1.5,None,2024-11-14 18h37.22.005954 +0530
0.7,1000,exp,11,5,137,11,740.5718099,,740.558982,740.5718099,741.5718809,741.5718809,741.5718809,741.956907,space,0.3804009,None,741.9578184,742.6718909,743.0004521,742.9720296,742.9720711,743.0004521,743.0004521,743.0004521,744.7910118,346,1,[1.8159541999993962],[1.8159716999998636],Participant 1,1,N/A,2024-11-14_18h36.47.251,IntentionalBinding,2024.1.5,None,2024-11-14 18h37.22.005954 +0530
0.1,1000,exp,11,6,138,3,744.8055785,,744.7927313,744.8055785,745.8057833,745.8057833,745.8057833,746.1410185,space,0.3272926,None,746.1418202,746.2555477,746.5604954,746.5445219,746.5445743,746.5604954,746.5604954,746.5604954,748.9438013,734,1,[2.3960922000005667],[2.3961102000012033],Participant 1,1,N/A,2024-11-14_18h36.47.251,IntentionalBinding,2024.1.5,None,2024-11-14 18h37.22.005954 +0530
0.7,400,unexp,11,7,139,2,748.956128,,748.945493,748.956128,749.9557303,749.9557303,749.9557303,750.0410338,space,0.0783926,None,750.0422613,750.7560221,,751.0421328,751.0421693,751.0536855,751.0536855,751.0536855,753.0413897,523,1,[1.9975231000007625],[1.9975377999999182],Participant 1,1,N/A,2024-11-14_18h36.47.251,IntentionalBinding,2024.1.5,None,2024-11-14 18h37.22.005954 +0530
0.7,1000,exp,11,8,140,8,753.0564095,,753.042839,753.0564095,754.0566225,754.0566225,754.0566225,754.3913471,space,0.317688,None,754.3922803,755.1070526,755.4224181,755.4062334,755.4062618,755.4224181,755.4224181,755.4224181,756.9922177,46,1,[1.5834503999994922],[1.5834678000010172],Participant 1,1,N/A,2024-11-14_18h36.47.251,IntentionalBinding,2024.1.5,None,2024-11-14 18h37.22.005954 +0530
0.4,1000,exp,11,9,141,7,757.0067387,,756.9941782,757.0067387,758.0067648,758.0067648,758.0067648,758.2092549,space,0.1884,None,758.2100662,758.623809,758.9431912,758.9223388,758.9223989,758.9431912,758.9431912,758.9431912,761.0597465,462,1,[2.1345092999999906],[2.1345273999995698],Participant 1,1,N/A,2024-11-14_18h36.47.251,IntentionalBinding,2024.1.5,None,2024-11-14 18h37.22.005954 +0530
0.4,1000,exp,11,10,142,4,761.0738927,,761.061625,761.0738927,762.0740041,762.0740041,762.0740041,762.0928512,space,0.0087714,None,762.0936538,762.5073313,762.8266213,762.8063446,762.806397,762.8266213,762.8266213,762.8266213,765.1754402,856,1,[2.366349599999012],[2.3663617000001977],Participant 1,1,N/A,2024-11-14_18h36.47.251,IntentionalBinding,2024.1.5,None,2024-11-14 18h37.22.005954 +0530
0.1,400,unexp,11,11,143,0,765.1915439,,765.1765574,765.1915439,766.1911712,766.1911712,766.1911712,766.7762751,space,0.5678658,None,766.7770544,766.8911497,767.2147724,767.1923051,767.1923455,767.2147724,767.2147724,767.2147724,770.327444,963,1,[3.132291300000361],[3.1323073000003205],Participant 1,1,N/A,2024-11-14_18h36.47.251,IntentionalBinding,2024.1.5,None,2024-11-14 18h37.22.005954 +0530
0.1,1000,exp,12,0,144,9,770.3418485,,770.3293854,770.3418485,771.3417327,771.3417327,771.3417327,771.459919,space,0.1025255,None,771.4609897,771.5754348,771.8932088,771.8721264,771.8721679,771.8932088,771.8932088,771.8932088,774.9783758,346,1,[3.1031622999998945],[3.1031789999997272],Participant 1,1,N/A,2024-11-14_18h36.47.251,IntentionalBinding,2024.1.5,None,2024-11-14 18h37.22.005954 +0530
0.4,400,unexp,12,1,145,1,774.9920501,,774.9803892,774.9920501,775.9922342,775.9922342,775.9922342,776.494341,space,0.4900395,None,776.495315,776.9092436,777.2247567,777.2021723,777.2022129,777.2247567,777.2247567,777.2247567,780.2945325,735,1,[3.089561099999628],[3.0895741999993334],Participant 1,1,N/A,2024-11-14_18h36.47.251,IntentionalBinding,2024.1.5,None,2024-11-14 18h37.22.005954 +0530
0.1,400,unexp,12,2,146,0,780.3091883,,780.2956584,780.3091883,781.3094807,781.3094807,781.3094807,781.7946294,space,0.4809709,None,781.7957053,781.9094863,782.2357388,782.2126243,782.2126742,782.2357388,782.2357388,782.2357388,784.1282153,42,1,[1.9125810999994428],[1.9126040999999532],Participant 1,1,N/A,2024-11-14_18h36.47.251,IntentionalBinding,2024.1.5,None,2024-11-14 18h37.22.005954 +0530
0.7,400,unexp,12,3,147,2,784.1428898,,784.1298817,784.1428898,785.1430233,785.1430233,785.1430233,785.5788805,space,0.419,None,785.5798554,786.2931715,786.6190385,786.5923306,786.5923763,786.6190385,786.6190385,786.6190385,789.1951446,235,1,[2.6000610000010056],[2.6000734999997803],Participant 1,1,N/A,2024-11-14_18h36.47.251,IntentionalBinding,2024.1.5,None,2024-11-14 18h37.22.005954 +0530
0.7,1000,exp,12,4,148,8,789.2101341,,789.1961402,789.2101341,790.2107934,790.2107934,790.2107934,790.3791784,space,0.1621565,None,790.3801161,791.0934748,791.413625,791.3928882,791.3929264,791.413625,791.413625,791.413625,792.8803027,463,1,[1.4814648000010493],[1.481481500000882],Participant 1,1,N/A,2024-11-14_18h36.47.251,IntentionalBinding,2024.1.5,None,2024-11-14 18h37.22.005954 +0530
0.7,1000,exp,12,5,149,5,792.8939407,,792.8820133,792.8939407,793.8939476,793.8939476,793.8939476,794.0124923,space,0.100981,None,794.0133126,794.7279755,795.0461497,795.0222255,795.0222703,795.0461497,795.0461497,795.0461497,797.3957557,745,1,[2.3708191999994597],[2.370831199999884],Participant 1,1,N/A,2024-11-14_18h36.47.251,IntentionalBinding,2024.1.5,None,2024-11-14 18h37.22.005954 +0530
0.7,1000,exp,12,6,150,11,797.4109809,,797.3969217,797.4109809,798.4111739,798.4111739,798.4111739,798.7630169,space,0.3407147,None,798.7639119,799.4777831,799.7943489,799.7719566,799.771996,799.7943489,799.7943489,799.7943489,802.2467888,745,1,[2.471910399999615],[2.4719275000006746],Participant 1,1,N/A,2024-11-14_18h36.47.251,IntentionalBinding,2024.1.5,None,2024-11-14 18h37.22.005954 +0530
0.4,1000,exp,12,7,151,10,802.2616081,,802.248631,802.2616081,803.2621104,803.2621104,803.2621104,803.3134439,space,0.0422664,None,803.3142153,803.7285143,804.0451373,804.0221113,804.0222249,804.0451373,804.0451373,804.0451373,806.1472312,999,1,[2.122098499999993],[2.1221136999993178],Participant 1,1,N/A,2024-11-14_18h36.47.251,IntentionalBinding,2024.1.5,None,2024-11-14 18h37.22.005954 +0530
0.1,1000,exp,12,8,152,3,806.1619854,,806.1486529,806.1619854,807.1627662,807.1627662,807.1627662,807.3141654,space,0.1471641,None,807.315204,807.4286654,807.7430799,807.7221077,807.7221484,807.7430799,807.7430799,807.7430799,809.8808011,674,1,[2.156297400000767],[2.1563084999997955],Participant 1,1,N/A,2024-11-14_18h36.47.251,IntentionalBinding,2024.1.5,None,2024-11-14 18h37.22.005954 +0530
0.4,1000,exp,12,9,153,7,809.896132,,809.8817952,809.896132,810.8959261,810.8959261,810.8959261,811.4311565,space,0.5210901,None,811.4323742,811.8460341,812.167866,812.1440802,812.1441393,812.167866,812.167866,812.167866,813.7643703,245,1,[1.6169355000001815],[1.6169509999999718],Participant 1,1,N/A,2024-11-14_18h36.47.251,IntentionalBinding,2024.1.5,None,2024-11-14 18h37.22.005954 +0530
0.1,1000,exp,12,10,154,6,813.7794827,,813.7658876,813.7794827,814.7795173,814.7795173,814.7795173,815.2816371,space,0.4901778,None,815.2824834,815.3964912,815.7129499,815.692153,815.6921933,815.7129499,815.7129499,815.7129499,817.8646805,546,1,[2.1700820999994903],[2.170097000000169],Participant 1,1,N/A,2024-11-14_18h36.47.251,IntentionalBinding,2024.1.5,None,2024-11-14 18h37.22.005954 +0530
0.4,1000,exp,12,11,155,4,817.8798562,,817.8660365,817.8798562,818.8802673,818.8802673,818.8802673,819.0494109,space,0.166236,None,819.0503083,819.4632024,819.7830298,819.762724,819.7627645,819.7830298,819.7830298,819.7830298,820.9820009,556,1,[1.2165584999984276],[1.2165744999983872],Participant 1,1,N/A,2024-11-14_18h36.47.251,IntentionalBinding,2024.1.5,None,2024-11-14 18h37.22.005954 +0530
0.4,400,unexp,13,0,156,1,820.9968713,,820.9838851,820.9968713,821.9970312,821.9970312,821.9970312,822.1323816,space,0.124952,None,822.1331407,822.5468442,822.8630566,822.8421665,822.842207,822.8630566,822.8630566,822.8630566,824.5498012,646,1,[1.7049048000008042],[1.7049278000013146],Participant 1,1,N/A,2024-11-14_18h36.47.251,IntentionalBinding,2024.1.5,None,2024-11-14 18h37.22.005954 +0530
0.4,1000,exp,13,1,157,10,824.564117,,824.5515487,824.564117,825.5641516,825.5641516,825.5641516,826.0832023,space,0.5088297,None,826.0840826,826.4974156,826.8121436,826.7923788,826.7924171,826.8121436,826.8121436,826.8121436,828.8165374,324,1,[2.021820399999342],[2.021832700000232],Participant 1,1,N/A,2024-11-14_18h36.47.251,IntentionalBinding,2024.1.5,None,2024-11-14 18h37.22.005954 +0530
0.4,1000,exp,13,2,158,7,828.8309382,,828.8176224,828.8309382,829.8311014,829.8311014,829.8311014,829.8830054,space,0.0382996,None,829.8839119,830.2978382,830.6131154,830.5924917,830.5925309,830.6131154,830.6131154,830.6131154,833.0514693,514,1,[2.4558407999993506],[2.4558572999994794],Participant 1,1,N/A,2024-11-14_18h36.47.251,IntentionalBinding,2024.1.5,None,2024-11-14 18h37.22.005954 +0530
0.7,1000,exp,13,3,159,5,833.0647268,,833.0531762,833.0647268,834.0649775,834.0649775,834.0649775,834.2507771,space,0.1832696,None,834.2516216,834.965008,835.283611,835.2623684,835.2624083,835.283611,835.283611,835.283611,837.6512131,264,1,[2.3854054999992513],[2.385423099998661],Participant 1,1,N/A,2024-11-14_18h36.47.251,IntentionalBinding,2024.1.5,None,2024-11-14 18h37.22.005954 +0530
0.1,1000,exp,13,4,160,6,837.665623,,837.6530902,837.665623,838.6652936,838.6652936,838.6652936,839.4010412,space,0.7265504,None,839.4019808,839.5157427,839.8343644,839.8120935,839.8121369,839.8343644,839.8343644,839.8343644,841.63439,246,1,[1.819001500000013],[1.8190200999997614],Participant 1,1,N/A,2024-11-14_18h36.47.251,IntentionalBinding,2024.1.5,None,2024-11-14 18h37.22.005954 +0530
0.7,1000,exp,13,5,161,8,841.6490136,,841.6361544,841.6490136,842.649065,842.649065,842.649065,843.001119,space,0.3381539,None,843.0024889,843.7159527,844.041638,844.012271,844.0123109,844.041638,844.041638,844.041638,846.6682504,235,1,[2.6532540999996854],[2.6532761999987997],Participant 1,1,N/A,2024-11-14_18h36.47.251,IntentionalBinding,2024.1.5,None,2024-11-14 18h37.22.005954 +0530
0.1,1000,exp,13,6,162,9,846.6839571,,846.6699899,846.6839571,847.6832558,847.6832558,847.6832558,847.868231,space,0.1809245,None,847.8689846,847.9829651,848.3034441,848.2822952,848.2823362,848.3034441,848.3034441,848.3034441,850.9186517,999,1,[2.633530900000551],[2.6335478000000876],Participant 1,1,N/A,2024-11-14_18h36.47.251,IntentionalBinding,2024.1.5,None,2024-11-14 18h37.22.005954 +0530
0.1,400,unexp,13,7,163,0,850.9334363,,850.9211266,850.9334363,851.9334363,851.9334363,851.9334363,852.0523555,space,0.1146792,None,852.0534104,852.1668208,852.4830889,852.4623408,852.4623788,852.4830889,852.4830889,852.4830889,855.1023909,877,1,[2.6372924000006606],[2.637310300000536],Participant 1,1,N/A,2024-11-14_18h36.47.251,IntentionalBinding,2024.1.5,None,2024-11-14 18h37.22.005954 +0530
0.4,1000,exp,13,8,164,4,855.1171412,,855.1045656,855.1171412,856.1172021,856.1172021,856.1172021,856.4197308,space,0.2999079,None,856.4206681,856.8342,857.1584592,857.1330916,857.1331389,857.1584592,857.1584592,857.1584592,859.0191505,982,1,[1.8832587999986572],[1.883270000000266],Participant 1,1,N/A,2024-11-14_18h36.47.251,IntentionalBinding,2024.1.5,None,2024-11-14 18h37.22.005954 +0530
0.7,1000,exp,13,9,165,11,859.034187,,859.0201593,859.034187,860.0344955,860.0344955,860.0344955,860.3195629,space,0.2763156,None,860.3204876,861.0344818,861.3543644,861.3322517,861.3322931,861.3543644,861.3543644,861.3543644,865.0701333,292,1,[3.7347714000006818],[3.7347876000003453],Participant 1,1,N/A,2024-11-14_18h36.47.251,IntentionalBinding,2024.1.5,None,2024-11-14 18h37.22.005954 +0530
0.1,1000,exp,13,10,166,3,865.084948,,865.0717234,865.084948,866.0850711,866.0850711,866.0850711,866.3210954,space,0.2265432,None,866.3220672,866.4351045,866.7538845,866.7323397,866.7323802,866.7538845,866.7538845,866.7538845,868.3036441,829,1,[1.568840400001136],[1.5688538000013068],Participant 1,1,N/A,2024-11-14_18h36.47.251,IntentionalBinding,2024.1.5,None,2024-11-14 18h37.22.005954 +0530
0.7,400,unexp,13,11,167,2,868.3187765,,868.3061869,868.3187765,869.3184697,869.3184697,869.3184697,869.6371235,space,0.3138064,None,869.6385284,870.3523455,870.6727234,870.6523426,870.6523839,870.6727234,870.6727234,870.6727234,872.2541786,728,1,[1.5993269000009604],[1.5993448000008357],Participant 1,1,N/A,2024-11-14_18h36.47.251,IntentionalBinding,2024.1.5,None,2024-11-14 18h37.22.005954 +0530
0.1,1000,exp,14,0,168,3,872.2690481,,872.2553489,872.2690481,873.2691027,873.2691027,873.2691027,873.654409,space,0.3704332,None,873.6551737,873.7690579,874.0892623,874.0656476,874.0656864,874.0892623,874.0892623,874.0892623,876.7889454,891,1,[2.7202828000008594],[2.7203004000002693],Participant 1,1,N/A,2024-11-14_18h36.47.251,IntentionalBinding,2024.1.5,None,2024-11-14 18h37.22.005954 +0530
0.4,1000,exp,14,1,169,7,876.8032468,,876.7907102,876.8032468,877.8036471,877.8036471,877.8036471,878.0218793,space,0.2050098,None,878.023175,878.4369068,878.7568286,878.7330997,878.7331513,878.7568286,878.7568286,878.7568286,880.5049305,183,1,[1.768593900000269],[1.7686088999998901],Participant 1,1,N/A,2024-11-14_18h36.47.251,IntentionalBinding,2024.1.5,None,2024-11-14 18h37.22.005954 +0530
0.4,400,unexp,14,2,170,1,880.5198068,,880.5064731,880.5198068,881.5197184,881.5197184,881.5197184,881.8718252,space,0.338858,None,881.8726464,882.2868694,882.607064,882.5845015,882.5845564,882.607064,882.607064,882.607064,884.1388074,938,1,[1.551297899999554],[1.5513157999994291],Participant 1,1,N/A,2024-11-14_18h36.47.251,IntentionalBinding,2024.1.5,None,2024-11-14 18h37.22.005954 +0530
0.4,1000,exp,14,3,171,10,884.1536788,,884.1406081,884.1536788,885.1534345,885.1534345,885.1534345,885.2057161,space,0.04529,None,885.2066729,885.6202983,885.9417523,885.9221577,885.922197,885.9417523,885.9417523,885.9417523,888.0722193,829,1,[2.1474437000015314],[2.1474600000001374],Participant 1,1,N/A,2024-11-14_18h36.47.251,IntentionalBinding,2024.1.5,None,2024-11-14 18h37.22.005954 +0530
0.7,1000,exp,14,4,172,11,888.0875249,,888.0739955,888.0875249,889.0874139,889.0874139,889.0874139,889.4394958,space,0.3407801,None,889.4402881,890.1543447,890.4773363,890.4528456,890.452889,890.4773363,890.4773363,890.4773363,892.4411036,83,1,[1.9842164999990928],[1.9842325999998138],Participant 1,1,N/A,2024-11-14_18h36.47.251,IntentionalBinding,2024.1.5,None,2024-11-14 18h37.22.005954 +0530
0.7,1000,exp,14,5,173,8,892.4546045,,892.4432884,892.4546045,893.4544143,893.4544143,893.4544143,893.7730937,space,0.3058922,None,893.7738397,894.4879788,894.8086798,894.7887,894.7887432,894.8086798,894.8086798,894.8086798,897.6063077,753,1,[2.814948600000207],[2.8149610000000393],Participant 1,1,N/A,2024-11-14_18h36.47.251,IntentionalBinding,2024.1.5,None,2024-11-14 18h37.22.005954 +0530
0.7,1000,exp,14,6,174,5,897.6218091,,897.6074756,897.6218091,898.6217221,898.6217221,898.6217221,899.4742042,space,0.8492964,None,899.4750195,900.18846,900.5059065,900.4822154,900.4822569,900.5059065,900.5059065,900.5059065,902.2248413,829,1,[1.738840899999559],[1.7388577000001533],Participant 1,1,N/A,2024-11-14_18h36.47.251,IntentionalBinding,2024.1.5,None,2024-11-14 18h37.22.005954 +0530
0.7,400,unexp,14,7,175,2,902.2387973,,902.2265542,902.2387973,903.2388493,903.2388493,903.2388493,903.707806,space,0.454352,None,903.708771,904.422389,904.7461145,904.7228131,904.722856,904.7461145,904.7461145,904.7461145,906.2417038,289,1,[1.5164915999994264],[1.5165029999989201],Participant 1,1,N/A,2024-11-14_18h36.47.251,IntentionalBinding,2024.1.5,None,2024-11-14 18h37.22.005954 +0530
0.4,1000,exp,14,8,176,4,906.2557636,,906.2425781,906.2557636,907.2561555,907.2561555,907.2561555,908.9581583,space,1.693772,None,908.9590975,909.3727974,909.6934173,909.6722957,909.6723366,909.6934173,909.6934173,909.6934173,914.3749043,255,1,[4.700340699999288],[4.700352599998951],Participant 1,1,N/A,2024-11-14_18h36.47.251,IntentionalBinding,2024.1.5,None,2024-11-14 18h37.22.005954 +0530
0.1,1000,exp,14,9,177,6,914.3901983,,914.3758897,914.3901983,915.3904973,915.3904973,915.3904973,915.7586115,space,0.363274,None,915.7595515,915.8740316,916.1958836,916.1726205,916.1726654,916.1958836,916.1958836,916.1958836,918.6761118,234,1,[2.500634899999568],[2.5006541999991896],Participant 1,1,N/A,2024-11-14_18h36.47.251,IntentionalBinding,2024.1.5,None,2024-11-14 18h37.22.005954 +0530
0.1,1000,exp,14,10,178,9,918.6904972,,918.6772662,918.6904972,919.6911754,919.6911754,919.6911754,921.1260096,space,1.4196804,None,921.1268602,921.2407855,921.5593631,921.5426533,921.5426923,921.5593631,921.5593631,921.5593631,924.0423792,453,1,[2.4971616999991966],[2.497172999999748],Participant 1,1,N/A,2024-11-14_18h36.47.251,IntentionalBinding,2024.1.5,None,2024-11-14 18h37.22.005954 +0530
0.1,400,unexp,14,11,179,0,924.0578167,,924.0438153,924.0578167,925.0579698,925.0579698,925.0579698,925.1764581,space,0.1147088,None,925.1772448,925.291015,925.6129953,925.5931127,925.5931714,925.6129953,925.6129953,925.6129953,928.0104761,254,1,[2.414452999999412],[2.4144703000001755],Participant 1,1,N/A,2024-11-14_18h36.47.251,IntentionalBinding,2024.1.5,None,2024-11-14 18h37.22.005954 +0530
0.1,400,unexp,15,0,180,0,928.0251264,,928.012915,928.0251264,929.0249224,929.0249224,929.0249224,929.2108662,space,0.169132,None,929.2121278,929.3248083,929.6419024,929.6226006,929.6226438,929.6419024,929.6419024,929.6419024,931.5270394,235,1,[1.9014838999992207],[1.9015002999985882],Participant 1,1,N/A,2024-11-14_18h36.47.251,IntentionalBinding,2024.1.5,None,2024-11-14 18h37.22.005954 +0530
0.1,1000,exp,15,1,181,9,931.542482,,931.528898,931.542482,932.5419346,932.5419346,932.5419346,933.0106036,space,0.4533225,None,933.0115345,933.1252894,933.4439591,933.4221397,933.4221805,933.4439591,933.4439591,933.4439591,935.4605085,745,1,[2.0360426000006555],[2.036055700000361],Participant 1,1,N/A,2024-11-14_18h36.47.251,IntentionalBinding,2024.1.5,None,2024-11-14 18h37.22.005954 +0530
0.1,1000,exp,15,2,182,3,935.4754993,,935.4616441,935.4754993,936.4757544,936.4757544,936.4757544,936.8109352,space,0.3242052,None,936.811971,936.9254173,937.2435214,937.2222399,937.2222819,937.2435214,937.2435214,937.2435214,939.2613415,256,1,[2.036679799999547],[2.0366911999990407],Participant 1,1,N/A,2024-11-14_18h36.47.251,IntentionalBinding,2024.1.5,None,2024-11-14 18h37.22.005954 +0530
0.7,1000,exp,15,3,183,5,939.2760074,,939.262632,939.2760074,940.2760351,940.2760351,940.2760351,940.5454465,space,0.2662178,None,940.5463844,941.2595331,941.584394,941.563322,941.5633731,941.584394,941.584394,941.584394,943.761614,863,1,[2.1952757999988535],[2.1952922999989823],Participant 1,1,N/A,2024-11-14_18h36.47.251,IntentionalBinding,2024.1.5,None,2024-11-14 18h37.22.005954 +0530
0.4,1000,exp,15,4,184,7,943.7768827,,943.763469,943.7768827,944.7765571,944.7765571,944.7765571,945.0285628,space,0.2383252,None,945.0293539,945.4433611,945.7627195,945.7421128,945.7421538,945.7627195,945.7627195,945.7627195,947.3319547,356,1,[1.5861640000002808],[1.58618320000096],Participant 1,1,N/A,2024-11-14_18h36.47.251,IntentionalBinding,2024.1.5,None,2024-11-14 18h37.22.005954 +0530
0.7,400,unexp,15,5,185,2,947.3434254,,947.3344492,947.3434254,948.3437485,948.3437485,948.3437485,948.5787891,space,0.2216255,None,948.579587,949.2936947,949.6180647,949.5923641,949.5924054,949.6180647,949.6180647,949.6180647,950.8655583,454,1,[1.2698700000000827],[1.2698973000005935],Participant 1,1,N/A,2024-11-14_18h36.47.251,IntentionalBinding,2024.1.5,None,2024-11-14 18h37.22.005954 +0530
0.7,1000,exp,15,6,186,11,950.8774071,,950.8668385,950.8774071,951.8773374,951.8773374,951.8773374,952.262441,space,0.3722227,None,952.2633505,952.9776087,953.2939359,953.2728563,953.2729158,953.2939359,953.2939359,953.2939359,955.3316402,56,1,[2.05464579999898],[2.0546635999999125],Participant 1,1,N/A,2024-11-14_18h36.47.251,IntentionalBinding,2024.1.5,None,2024-11-14 18h37.22.005954 +0530
0.4,1000,exp,15,7,187,4,955.3442574,,955.3334754,955.3442574,956.3446251,956.3446251,956.3446251,956.5304046,space,0.1741534,None,956.5313621,956.9443393,957.266076,957.2420706,957.2421114,957.266076,957.266076,957.266076,959.0146696,15,1,[1.7698044999997364],[1.7698219000012614],Participant 1,1,N/A,2024-11-14_18h36.47.251,IntentionalBinding,2024.1.5,None,2024-11-14 18h37.22.005954 +0530
0.4,400,unexp,15,8,188,1,959.0278697,,959.0163243,959.0278697,960.0281757,960.0281757,960.0281757,960.3135661,space,0.280179,None,960.3143208,960.7284016,961.0496083,961.0264984,961.0266175,961.0496083,961.0496083,961.0496083,964.5137304,0,1,[3.4843901000003825],[3.484410700000808],Participant 1,1,N/A,2024-11-14_18h36.47.251,IntentionalBinding,2024.1.5,None,2024-11-14 18h37.22.005954 +0530
0.7,1000,exp,15,9,189,8,964.5288186,,964.5153567,964.5288186,965.528685,965.528685,965.528685,965.9473797,space,0.4034155,None,965.9482904,966.6621106,966.9829179,966.9625519,966.9625912,966.9829179,966.9829179,966.9829179,968.6137473,134,1,[1.6488336999991589],[1.6488453000001755],Participant 1,1,N/A,2024-11-14_18h36.47.251,IntentionalBinding,2024.1.5,None,2024-11-14 18h37.22.005954 +0530
0.1,1000,exp,15,10,190,6,968.629013,,968.6152105,968.629013,969.6290587,969.6290587,969.6290587,969.8810044,space,0.236022,None,969.881974,969.9959026,970.3143053,970.2925269,970.2926149,970.3143053,970.3143053,970.3143053,972.7317562,153,1,[2.436068400000295],[2.436086100000466],Participant 1,1,N/A,2024-11-14_18h36.47.251,IntentionalBinding,2024.1.5,None,2024-11-14 18h37.22.005954 +0530
0.4,1000,exp,15,11,191,10,972.7463064,,972.7335885,972.7463064,973.7463788,973.7463788,973.7463788,974.4322011,space,0.6827094,None,974.4332201,974.8463418,975.1674763,975.1425705,975.1426116,975.1674763,975.1674763,975.1674763,977.1986456,899,1,[2.053185599999779],[2.0532017999994423],Participant 1,1,N/A,2024-11-14_18h36.47.251,IntentionalBinding,2024.1.5,None,2024-11-14 18h37.22.005954 +0530
0.1,1000,exp,16,0,192,3,977.2132762,,977.2003237,977.2132762,978.2132661,978.2132661,978.2132661,978.3150967,space,0.086637,None,978.3159503,978.4299897,978.7528497,978.7329139,978.7329581,978.7528497,978.7528497,978.7528497,983.6159153,900,1,[4.880561100000705],[4.880572800000664],Participant 1,1,N/A,2024-11-14_18h36.47.251,IntentionalBinding,2024.1.5,None,2024-11-14 18h37.22.005954 +0530
0.4,1000,exp,16,1,193,10,983.630636,,983.6170763,983.630636,984.6307118,984.6307118,984.6307118,984.7156406,space,0.0678243,None,984.7164942,985.1307704,985.4545165,985.4325541,985.4326,985.4545165,985.4545165,985.4545165,987.4994039,523,1,[2.0642509999997856],[2.0642635999993217],Participant 1,1,N/A,2024-11-14_18h36.47.251,IntentionalBinding,2024.1.5,None,2024-11-14 18h37.22.005954 +0530
0.7,1000,exp,16,2,194,11,987.5142229,,987.5006114,987.5142229,988.5146855,988.5146855,988.5146855,989.0000571,space,0.4819731,None,989.0009329,989.7145113,990.0340086,990.0125946,990.012633,990.0340086,990.0340086,990.0340086,991.4836076,423,1,[1.4650536000008287],[1.4650667000005342],Participant 1,1,N/A,2024-11-14_18h36.47.251,IntentionalBinding,2024.1.5,None,2024-11-14 18h37.22.005954 +0530
0.4,1000,exp,16,3,195,4,991.4982161,,991.4849447,991.4982161,992.4986309,992.4986309,992.4986309,992.5499834,space,0.0370956,None,992.5509801,992.9652495,993.2914716,993.262429,993.2624813,993.2914716,993.2914716,993.2914716,996.3507649,352,1,[3.0851853000003757],[3.085234500000297],Participant 1,1,N/A,2024-11-14_18h36.47.251,IntentionalBinding,2024.1.5,None,2024-11-14 18h37.22.005954 +0530
0.7,400,unexp,16,4,196,2,996.3651464,,996.3525378,996.3651464,997.3655149,997.3655149,997.3655149,997.9171447,space,0.5423275,None,997.9181022,998.6321737,998.9545618,998.9334309,998.9334722,998.9545618,998.9545618,998.9545618,1001.051938,56,1,[2.1111940999999206],[2.111213600001065],Participant 1,1,N/A,2024-11-14_18h36.47.251,IntentionalBinding,2024.1.5,None,2024-11-14 18h37.22.005954 +0530
0.7,1000,exp,16,5,197,5,1001.065726,,1001.053104,1001.065726,1002.06617,1002.06617,1002.06617,1002.835153,space,0.7570366,None,1002.836313,1003.549697,1003.875194,1003.853166,1003.853211,1003.875194,1003.875194,1003.875194,1006.534937,346,1,[2.6786611000006815],[2.6786780999991606],Participant 1,1,N/A,2024-11-14_18h36.47.251,IntentionalBinding,2024.1.5,None,2024-11-14 18h37.22.005954 +0530
0.4,1000,exp,16,6,198,7,1006.549785,,1006.536866,1006.549785,1007.549842,1007.549842,1007.549842,1008.051921,space,0.4891551,None,1008.052979,1008.467059,1008.786426,1008.762328,1008.762372,1008.786426,1008.786426,1008.786426,1010.868285,134,1,[2.1036398999985977],[2.103649900000164],Participant 1,1,N/A,2024-11-14_18h36.47.251,IntentionalBinding,2024.1.5,None,2024-11-14 18h37.22.005954 +0530
0.1,1000,exp,16,7,199,6,1010.883422,,1010.869341,1010.883422,1011.883556,1011.883556,1011.883556,1012.119306,space,0.2326212,None,1012.12066,1012.234191,1012.553865,1012.532424,1012.532475,1012.553865,1012.553865,1012.553865,1015.103036,745,1,[2.568032299999686],[2.568052099999477],Participant 1,1,N/A,2024-11-14_18h36.47.251,IntentionalBinding,2024.1.5,None,2024-11-14 18h37.22.005954 +0530
0.1,1000,exp,16,8,200,9,1015.117358,,1015.104674,1015.117358,1016.117248,1016.117248,1016.117248,1016.218638,space,0.0899229,None,1016.219123,1016.33394,1016.655462,1016.632498,1016.632549,1016.655462,1016.655462,1016.655462,1018.469443,145,1,[1.8342558999993344],[1.834273000000394],Participant 1,1,N/A,2024-11-14_18h36.47.251,IntentionalBinding,2024.1.5,None,2024-11-14 18h37.22.005954 +0530
0.4,400,unexp,16,9,201,1,1018.484276,,1018.471217,1018.484276,1019.484631,1019.484631,1019.484631,1019.803149,space,0.3121967,None,1019.803923,1020.217684,1020.536345,1020.512411,1020.512451,1020.536345,1020.536345,1020.536345,1023.086847,756,1,[2.5717335999997886],[2.5717509999994945],Participant 1,1,N/A,2024-11-14_18h36.47.251,IntentionalBinding,2024.1.5,None,2024-11-14 18h37.22.005954 +0530
0.1,400,unexp,16,10,202,0,1023.101759,,1023.088563,1023.101759,1024.101587,1024.101587,1024.101587,1024.254273,space,0.144038,None,1024.255506,1024.368278,1024.683166,1024.663063,1024.663104,1024.683166,1024.683166,1024.683166,1026.270468,135,1,[1.604407999999239],[1.6044251999992412],Participant 1,1,N/A,2024-11-14_18h36.47.251,IntentionalBinding,2024.1.5,None,2024-11-14 18h37.22.005954 +0530
0.7,1000,exp,16,11,203,8,1026.285157,,1026.271532,1026.285157,1027.28532,1027.28532,1027.28532,1027.720677,space,0.4292104,None,1027.721841,1028.435081,1028.752453,1028.732581,1028.73262,1028.752453,1028.752453,1028.752453,1030.704631,724,1,[1.969033399998807],[1.9690515999991476],Participant 1,1,N/A,2024-11-14_18h36.47.251,IntentionalBinding,2024.1.5,None,2024-11-14 18h37.22.005954 +0530
0.7,1000,exp,17,0,204,5,1030.718889,,1030.705691,1030.718889,1031.719241,1031.719241,1031.719241,1032.171352,space,0.4487483,None,1032.172318,1032.885774,1033.205018,1033.182461,1033.182511,1033.205018,1033.205018,1033.205018,1034.958161,13,1,[1.7724080999996659],[1.77243610000005],Participant 1,1,N/A,2024-11-14_18h36.47.251,IntentionalBinding,2024.1.5,None,2024-11-14 18h37.22.005954 +0530
0.1,1000,exp,17,1,205,6,1034.964853,,1034.960253,1034.964853,1035.969427,1035.969427,1035.969427,1036.255712,space,0.2747907,None,1036.256613,1036.370234,1036.693264,1036.672683,1036.672723,1036.693264,1036.693264,1036.693264,1039.155414,735,1,[2.479509799999505],[2.4795269000005646],Participant 1,1,N/A,2024-11-14_18h36.47.251,IntentionalBinding,2024.1.5,None,2024-11-14 18h37.22.005954 +0530
0.4,1000,exp,17,2,206,4,1039.1699,,1039.157312,1039.1699,1040.170354,1040.170354,1040.170354,1040.33824,space,0.1571435,None,1040.339145,1040.753295,1041.081215,1041.052583,1041.052651,1041.081215,1041.081215,1041.081215,1042.755355,135,1,[1.6995425000004616],[1.6995514999998704],Participant 1,1,N/A,2024-11-14_18h36.47.251,IntentionalBinding,2024.1.5,None,2024-11-14 18h37.22.005954 +0530
0.1,1000,exp,17,3,207,9,1042.770419,,1042.756288,1042.770419,1043.770375,1043.770375,1043.770375,1044.522417,space,0.7433922,None,1044.523307,1044.636956,1044.953888,1044.932787,1044.932839,1044.953888,1044.953888,1044.953888,1047.022514,735,1,[2.0867613999998866],[2.086783299999297],Participant 1,1,N/A,2024-11-14_18h36.47.251,IntentionalBinding,2024.1.5,None,2024-11-14 18h37.22.005954 +0530
0.7,400,unexp,17,4,208,2,1047.037404,,1047.025211,1047.037404,1048.038019,1048.038019,1048.038019,1048.423428,space,0.376042,None,1048.424893,1049.137801,1049.455295,1049.433021,1049.433061,1049.455295,1049.455295,1049.455295,1051.906202,994,1,[2.469885999998951],[2.46990039999946],Participant 1,1,N/A,2024-11-14_18h36.47.251,IntentionalBinding,2024.1.5,None,2024-11-14 18h37.22.005954 +0530
0.1,400,unexp,17,5,209,0,1051.921115,,1051.907554,1051.921115,1052.921274,1052.921274,1052.921274,1052.989856,space,0.0635687,None,1052.990611,1053.104531,1053.422841,1053.402311,1053.402354,1053.422841,1053.422841,1053.422841,1056.857737,891,1,[3.452277700000195],[3.452302800000325],Participant 1,1,N/A,2024-11-14_18h36.47.251,IntentionalBinding,2024.1.5,None,2024-11-14 18h37.22.005954 +0530
0.4,400,unexp,17,6,210,1,1056.871692,,1056.859522,1056.871692,1057.872178,1057.872178,1057.872178,1057.990325,space,0.1018142,None,1057.991191,1058.405105,1058.725127,1058.702585,1058.702628,1058.725127,1058.725127,1058.725127,1060.573406,78,1,[1.8680507999997644],[1.8680641999999352],Participant 1,1,N/A,2024-11-14_18h36.47.251,IntentionalBinding,2024.1.5,None,2024-11-14 18h37.22.005954 +0530
0.4,1000,exp,17,7,211,10,1060.588775,,1060.574656,1060.588775,1061.588755,1061.588755,1061.588755,1062.408201,space,0.8148459,None,1062.409191,1062.822217,1063.146884,1063.12352,1063.12356,1063.146884,1063.146884,1063.146884,1064.724364,199,1,[1.5978295000004437],[1.5978451000009954],Participant 1,1,N/A,2024-11-14_18h36.47.251,IntentionalBinding,2024.1.5,None,2024-11-14 18h37.22.005954 +0530
0.1,1000,exp,17,8,212,3,1064.739379,,1064.726578,1064.739379,1065.739455,1065.739455,1065.739455,1066.041593,space,0.2990791,None,1066.042355,1066.155736,1066.477164,1066.452572,1066.452614,1066.477164,1066.477164,1066.477164,1067.842567,788,1,[1.3870127999998658],[1.3870339000004606],Participant 1,1,N/A,2024-11-14_18h36.47.251,IntentionalBinding,2024.1.5,None,2024-11-14 18h37.22.005954 +0530
0.4,1000,exp,17,9,213,7,1067.856438,,1067.844217,1067.856438,1068.856546,1068.856546,1068.856546,1069.124674,space,0.2589127,None,1069.125468,1069.539741,1069.859339,1069.837554,1069.837617,1069.859339,1069.859339,1069.859339,1073.543027,199,1,[3.70231160000003],[3.7023259999987204],Participant 1,1,N/A,2024-11-14_18h36.47.251,IntentionalBinding,2024.1.5,None,2024-11-14 18h37.22.005954 +0530
0.7,1000,exp,17,10,214,11,1073.556923,,1073.544441,1073.556923,1074.556722,1074.556722,1074.556722,1074.858883,space,0.288395,None,1074.859674,1075.573521,1075.893049,1075.872705,1075.872745,1075.893049,1075.893049,1075.893049,1077.825529,634,1,[1.9469563999991806],[1.9469702999995206],Participant 1,1,N/A,2024-11-14_18h36.47.251,IntentionalBinding,2024.1.5,None,2024-11-14 18h37.22.005954 +0530
0.7,1000,exp,17,11,215,8,1077.840593,,1077.826997,1077.840593,1078.840679,1078.840679,1078.840679,1079.56001,space,0.7090756,None,1079.560843,1080.273933,1080.598255,1080.572406,1080.572446,1080.598255,1080.598255,1080.598255,1082.143192,124,1,[1.5675000000010186],[1.5675172999999631],Participant 1,1,N/A,2024-11-14_18h36.47.251,IntentionalBinding,2024.1.5,None,2024-11-14 18h37.22.005954 +0530
0.4,1000,exp,18,0,216,4,1082.158278,,1082.145075,1082.158278,1083.158006,1083.158006,1083.158006,1083.493104,space,0.3298024,None,1083.494499,1083.908478,1084.224715,1084.202618,1084.202678,1084.224715,1084.224715,1084.224715,1085.843418,42,1,[1.6369111999993038],[1.6369286999997712],Participant 1,1,N/A,2024-11-14_18h36.47.251,IntentionalBinding,2024.1.5,None,2024-11-14 18h37.22.005954 +0530
0.7,1000,exp,18,1,217,5,1085.858098,,1085.845445,1085.858098,1086.858084,1086.858084,1086.858084,1086.960542,space,0.0847551,None,1086.961519,1087.675113,1087.994045,1087.972681,1087.972733,1087.994045,1087.994045,1087.994045,1090.876803,51,1,[2.901382099998955],[2.9013963999987027],Participant 1,1,N/A,2024-11-14_18h36.47.251,IntentionalBinding,2024.1.5,None,2024-11-14 18h37.22.005954 +0530
0.7,1000,exp,18,2,218,11,1090.891899,,1090.87809,1090.891899,1091.891992,1091.891992,1091.891992,1091.944011,space,0.0419346,None,1091.944938,1092.658562,1092.977653,1092.956337,1092.956375,1092.977653,1092.977653,1092.977653,1094.477417,5,1,[1.5180961999994906],[1.5181099999990693],Participant 1,1,N/A,2024-11-14_18h36.47.251,IntentionalBinding,2024.1.5,None,2024-11-14 18h37.22.005954 +0530
0.1,1000,exp,18,3,219,3,1094.492448,,1094.478839,1094.492448,1095.492324,1095.492324,1095.492324,1095.812164,space,0.3171657,None,1095.812973,1095.925917,1096.246363,1096.223347,1096.223396,1096.246363,1096.246363,1096.246363,1098.510805,223,1,[2.2851967999995395],[2.285205500000302],Participant 1,1,N/A,2024-11-14_18h36.47.251,IntentionalBinding,2024.1.5,None,2024-11-14 18h37.22.005954 +0530
0.7,1000,exp,18,4,220,8,1098.526048,,1098.511748,1098.526048,1099.526366,1099.526366,1099.526366,1099.979522,space,0.4455636,None,1099.980087,1100.692801,1101.014956,1100.992811,1100.992853,1101.014956,1101.014956,1101.014956,1102.261881,23,1,[1.2663666000007652],[1.2663810000012745],Participant 1,1,N/A,2024-11-14_18h36.47.251,IntentionalBinding,2024.1.5,None,2024-11-14 18h37.22.005954 +0530
0.4,1000,exp,18,5,221,7,1102.276466,,1102.263412,1102.276466,1103.277043,1103.277043,1103.277043,1103.945239,space,0.656919,None,1103.946098,1104.359945,1104.68452,1104.663257,1104.663299,1104.68452,1104.68452,1104.68452,1107.996955,525,1,[3.3301924000006693],[3.3302196000004187],Participant 1,1,N/A,2024-11-14_18h36.47.251,IntentionalBinding,2024.1.5,None,2024-11-14 18h37.22.005954 +0530
0.1,400,unexp,18,6,222,0,1108.010291,,1107.998757,1108.010291,1109.010689,1109.010689,1109.010689,1109.49654,space,0.478356,None,1109.497417,1109.610517,1109.934273,1109.912834,1109.912896,1109.934273,1109.934273,1109.934273,1114.213051,45,1,[4.297387600001457],[4.297405500001332],Participant 1,1,N/A,2024-11-14_18h36.47.251,IntentionalBinding,2024.1.5,None,2024-11-14 18h37.22.005954 +0530
0.4,400,unexp,18,7,223,1,1114.227697,,1114.215033,1114.227697,1115.228141,1115.228141,1115.228141,1115.413697,space,0.1753579,None,1115.415093,1115.828235,1116.156009,1116.132444,1116.132487,1116.156009,1116.156009,1116.156009,1118.498282,235,1,[2.3628699999990204],[2.3628849999986414],Participant 1,1,N/A,2024-11-14_18h36.47.251,IntentionalBinding,2024.1.5,None,2024-11-14 18h37.22.005954 +0530
0.7,400,unexp,18,8,224,2,1118.511762,,1118.499945,1118.511762,1119.511959,1119.511959,1119.511959,1119.813777,space,0.2910172,None,1119.814635,1120.528483,1120.842449,1120.822326,1120.822366,1120.842449,1120.842449,1120.842449,1123.164697,643,1,[2.339704399999391],[2.339727499998844],Participant 1,1,N/A,2024-11-14_18h36.47.251,IntentionalBinding,2024.1.5,None,2024-11-14 18h37.22.005954 +0530
0.1,1000,exp,18,9,225,6,1123.178566,,1123.166435,1123.178566,1124.17872,1124.17872,1124.17872,1124.93028,space,0.7346763,None,1124.931174,1125.045487,1125.36555,1125.342554,1125.342595,1125.36555,1125.36555,1125.36555,1127.547865,134,1,[2.2026706999986345],[2.202681400000074],Participant 1,1,N/A,2024-11-14_18h36.47.251,IntentionalBinding,2024.1.5,None,2024-11-14 18h37.22.005954 +0530
0.1,1000,exp,18,10,226,9,1127.562375,,1127.548879,1127.562375,1128.562575,1128.562575,1128.562575,1128.948781,space,0.3831159,None,1128.949685,1129.062723,1129.372114,1129.35529,1129.355324,1129.372114,1129.372114,1129.372114,1131.464511,234,1,[2.1069828999989113],[2.1070020999995904],Participant 1,1,N/A,2024-11-14_18h36.47.251,IntentionalBinding,2024.1.5,None,2024-11-14 18h37.22.005954 +0530
0.4,1000,exp,18,11,227,10,1131.480136,,1131.465916,1131.480136,1132.480621,1132.480621,1132.480621,1132.597475,space,0.1095943,None,1132.598078,1133.01305,1133.334903,1133.312686,1133.312727,1133.334903,1133.334903,1133.334903,1135.665202,252,1,[2.3499487999997655],[2.3499650999983714],Participant 1,1,N/A,2024-11-14_18h36.47.251,IntentionalBinding,2024.1.5,None,2024-11-14 18h37.22.005954 +0530
0.4,1000,exp,19,0,228,10,1135.679825,,1135.667063,1135.679825,1136.680216,1136.680216,1136.680216,1137.231993,space,0.5343629,None,1137.23276,1137.646769,1137.963884,1137.942445,1137.942486,1137.963884,1137.963884,1137.963884,1140.716112,23,1,[2.771095099999002],[2.771109499999511],Participant 1,1,N/A,2024-11-14_18h36.47.251,IntentionalBinding,2024.1.5,None,2024-11-14 18h37.22.005954 +0530
0.7,1000,exp,19,1,229,5,1140.730578,,1140.717542,1140.730578,1141.730889,1141.730889,1141.730889,1142.248939,space,0.5042781,None,1142.249856,1142.964009,1143.283886,1143.262275,1143.262317,1143.283886,1143.283886,1143.283886,1153.434123,288,1,[10.168986899998345],[10.169004699999277],Participant 1,1,N/A,2024-11-14_18h36.47.251,IntentionalBinding,2024.1.5,None,2024-11-14 18h37.22.005954 +0530
0.4,1000,exp,19,2,230,4,1153.448552,,1153.435895,1153.448552,1154.448599,1154.448599,1154.448599,1154.717779,space,0.2633266,None,1154.719419,1155.131977,1155.454244,1155.432544,1155.432585,1155.454244,1155.454244,1155.454244,1157.166483,72,1,[1.7317232000004879],[1.7317365999988397],Participant 1,1,N/A,2024-11-14_18h36.47.251,IntentionalBinding,2024.1.5,None,2024-11-14 18h37.22.005954 +0530
0.7,1000,exp,19,3,231,8,1157.182255,,1157.167361,1157.182255,1158.182248,1158.182248,1158.182248,1158.283449,space,0.0990961,None,1158.283939,1158.998847,1159.304928,1159.28704,1159.287079,1159.304928,1159.304928,1159.304928,1161.56745,254,1,[2.2781073000005563],[2.27811980000115],Participant 1,1,N/A,2024-11-14_18h36.47.251,IntentionalBinding,2024.1.5,None,2024-11-14 18h37.22.005954 +0530
0.7,400,unexp,19,4,232,2,1161.582777,,1161.568682,1161.582777,1162.582726,1162.582726,1162.582726,1163.400589,space,0.8146301,None,1163.401233,1164.116315,1164.419639,1164.405863,1164.405897,1164.419639,1164.419639,1164.419639,1165.934991,2,1,[1.5266256999984762],[1.5266414999987319],Participant 1,1,N/A,2024-11-14_18h36.47.251,IntentionalBinding,2024.1.5,None,2024-11-14 18h37.22.005954 +0530
0.1,1000,exp,19,5,233,6,1165.94971,,1165.937393,1165.94971,1166.949683,1166.949683,1166.949683,1167.435151,space,0.4805413,None,1167.436069,1167.549914,,1167.835063,1167.835099,1167.850932,1167.850932,1167.850932,1169.786233,234,1,[1.948341999999684],[1.9483612999993056],Participant 1,1,N/A,2024-11-14_18h36.47.251,IntentionalBinding,2024.1.5,None,2024-11-14 18h37.22.005954 +0530
0.7,1000,exp,19,6,234,11,1169.800201,,1169.788672,1169.800201,1170.800281,1170.800281,1170.800281,1170.868202,space,0.0595423,None,1170.868598,1171.58365,1171.884326,1171.873403,1171.873438,1171.884326,1171.884326,1171.884326,1174.185529,789,1,[2.3100037000003795],[2.310016400000677],Participant 1,1,N/A,2024-11-14_18h36.47.251,IntentionalBinding,2024.1.5,None,2024-11-14 18h37.22.005954 +0530
0.1,1000,exp,19,7,235,9,1174.200479,,1174.186807,1174.200479,1175.200675,1175.200675,1175.200675,1175.652022,space,0.4385652,None,1175.652787,1175.767511,1176.084323,1176.057937,1176.057996,1176.084323,1176.084323,1176.084323,1179.552733,56,1,[3.4920832000007067],[3.492095200001131],Participant 1,1,N/A,2024-11-14_18h36.47.251,IntentionalBinding,2024.1.5,None,2024-11-14 18h37.22.005954 +0530
0.4,1000,exp,19,8,236,7,1179.567813,,1179.553494,1179.567813,1180.567959,1180.567959,1180.567959,1180.952779,space,0.3767197,None,1180.953157,1181.368015,1181.679294,1181.663354,1181.663381,1181.679294,1181.679294,1181.679294,1184.153192,456,1,[2.487749199999598],[2.487761700000192],Participant 1,1,N/A,2024-11-14_18h36.47.251,IntentionalBinding,2024.1.5,None,2024-11-14 18h37.22.005954 +0530
0.4,400,unexp,19,9,237,1,1184.168353,,1184.154809,1184.168353,1185.168497,1185.168497,1185.168497,1185.853215,space,0.6717105,None,1185.853779,1186.268485,1186.58798,1186.571996,1186.572022,1186.58798,1186.58798,1186.58798,1189.237385,24,1,[2.663387299999158],[2.6634070000000065],Participant 1,1,N/A,2024-11-14_18h36.47.251,IntentionalBinding,2024.1.5,None,2024-11-14 18h37.22.005954 +0530
0.1,1000,exp,19,10,238,3,1189.252145,,1189.238833,1189.252145,1190.252206,1190.252206,1190.252206,1190.753636,space,0.4946502,None,1190.754243,1190.868993,,1191.144138,1191.144207,1191.1578,1191.1578,1191.1578,1195.354877,523,1,[4.208434900001521],[4.208451000000423],Participant 1,1,N/A,2024-11-14_18h36.47.251,IntentionalBinding,2024.1.5,None,2024-11-14 18h37.22.005954 +0530
0.1,400,unexp,19,11,239,0,1195.370137,,1195.357017,1195.370137,1196.369932,1196.369932,1196.369932,1197.405037,space,1.020148,None,1197.405946,1197.519685,1197.844847,1197.822955,1197.822994,1197.844847,1197.844847,1197.844847,1201.038137,43,1,[3.212728900000002],[3.212737500000003],Participant 1,1,N/A,2024-11-14_18h36.47.251,IntentionalBinding,2024.1.5,None,2024-11-14 18h37.22.005954 +0530
0.4,1000,exp,20,0,240,7,1201.053328,,1201.039214,1201.053328,1202.053437,1202.053437,1202.053437,1202.057393,space,0.0018853,None,1202.058294,1202.470279,1202.793643,1202.772692,1202.772731,1202.793643,1202.793643,1202.793643,1205.656832,254,1,[2.88142660000085],[2.881446000001233],Participant 1,1,N/A,2024-11-14_18h36.47.251,IntentionalBinding,2024.1.5,None,2024-11-14 18h37.22.005954 +0530
0.7,400,unexp,20,1,241,2,1205.670717,,1205.658503,1205.670717,1206.67061,1206.67061,1206.67061,1207.572668,space,0.8880607,None,1207.573479,1208.287623,1208.606023,1208.582711,1208.582763,1208.606023,1208.606023,1208.606023,1211.190265,563,1,[2.604785300000003],[2.6047963999990316],Participant 1,1,N/A,2024-11-14_18h36.47.251,IntentionalBinding,2024.1.5,None,2024-11-14 18h37.22.005954 +0530
0.4,1000,exp,20,2,242,4,1211.204777,,1211.191126,1211.204777,1212.204545,1212.204545,1212.204545,1212.557662,space,0.3509369,None,1212.558652,1212.971525,1213.294209,1213.272718,1213.272757,1213.294209,1213.294209,1213.294209,1215.456965,345,1,[2.181554500000857],[2.181569099999251],Participant 1,1,N/A,2024-11-14_18h36.47.251,IntentionalBinding,2024.1.5,None,2024-11-14 18h37.22.005954 +0530
0.1,1000,exp,20,3,243,6,1215.471581,,1215.458556,1215.471581,1216.471968,1216.471968,1216.471968,1217.073801,space,0.5927411,None,1217.074622,1217.188411,1217.506796,1217.482712,1217.482754,1217.506796,1217.506796,1217.506796,1220.257764,453,1,[2.771713300000556],[2.771729800000685],Participant 1,1,N/A,2024-11-14_18h36.47.251,IntentionalBinding,2024.1.5,None,2024-11-14 18h37.22.005954 +0530
0.7,1000,exp,20,4,244,8,1220.272135,,1220.259513,1220.272135,1221.272377,1221.272377,1221.272377,1222.158816,space,0.8836407,None,1222.159737,1222.872469,1223.183197,1223.168779,1223.168806,1223.183197,1223.183197,1223.183197,1225.340647,534,1,[2.170008399998551],[2.1700181999985944],Participant 1,1,N/A,2024-11-14_18h36.47.251,IntentionalBinding,2024.1.5,None,2024-11-14 18h37.22.005954 +0530
0.4,1000,exp,20,5,245,10,1225.356075,,1225.341832,1225.356075,1226.355862,1226.355862,1226.355862,1226.975942,space,0.6019421,None,1226.977114,1227.389592,1227.712844,1227.692914,1227.692953,1227.712844,1227.712844,1227.712844,1230.159906,452,1,[2.4638498999993317],[2.46387329999925],Participant 1,1,N/A,2024-11-14_18h36.47.251,IntentionalBinding,2024.1.5,None,2024-11-14 18h37.22.005954 +0530
0.1,1000,exp,20,6,246,9,1230.173491,,1230.161934,1230.173491,1231.173437,1231.173437,1231.173437,1231.208811,space,0.0321409,None,1231.209756,1231.323263,1231.64679,1231.624255,1231.624297,1231.64679,1231.64679,1231.64679,1233.758605,245,1,[2.131547099999807],[2.1315687999995134],Participant 1,1,N/A,2024-11-14_18h36.47.251,IntentionalBinding,2024.1.5,None,2024-11-14 18h37.22.005954 +0530
0.1,400,unexp,20,7,247,0,1233.773541,,1233.760005,1233.773541,1234.773566,1234.773566,1234.773566,1235.159353,space,0.3748486,None,1235.160168,1235.273809,1235.598189,1235.572444,1235.572654,1235.598189,1235.598189,1235.598189,1238.392494,653,1,[2.8167439000008017],[2.816761800000677],Participant 1,1,N/A,2024-11-14_18h36.47.251,IntentionalBinding,2024.1.5,None,2024-11-14 18h37.22.005954 +0530
0.7,1000,exp,20,8,248,5,1238.407445,,1238.394822,1238.407445,1239.408551,1239.408551,1239.408551,1240.726105,space,1.3020876,None,1240.726883,1241.440951,1241.766851,1241.743633,1241.74369,1241.766851,1241.766851,1241.766851,1247.277929,544,1,[5.53134129999853],[5.531363000000056],Participant 1,1,N/A,2024-11-14_18h36.47.251,IntentionalBinding,2024.1.5,None,2024-11-14 18h37.22.005954 +0530
0.4,400,unexp,20,9,249,1,1247.291663,,1247.279596,1247.291663,1248.291987,1248.291987,1248.291987,1248.627811,space,0.3337654,None,1248.628706,1249.04188,1249.365906,1249.342551,1249.342594,1249.365906,1249.365906,1249.365906,1252.961076,74,1,[3.615525699999125],[3.6155438000005233],Participant 1,1,N/A,2024-11-14_18h36.47.251,IntentionalBinding,2024.1.5,None,2024-11-14 18h37.22.005954 +0530
0.7,1000,exp,20,10,250,11,1252.975667,,1252.963137,1252.975667,1253.975785,1253.975785,1253.975785,1254.394092,space,0.4051938,None,1254.395129,1255.109146,1255.423597,1255.402427,1255.402467,1255.423597,1255.423597,1255.423597,1258.611603,343,1,[3.206542799998715],[3.2065604999988864],Participant 1,1,N/A,2024-11-14_18h36.47.251,IntentionalBinding,2024.1.5,None,2024-11-14 18h37.22.005954 +0530
0.1,1000,exp,20,11,251,3,1258.626166,,1258.613881,1258.626166,1259.626211,1259.626211,1259.626211,1260.511733,space,0.8813306,None,1260.512683,1260.626658,1260.941945,1260.922411,1260.922451,1260.941945,1260.941945,1260.941945,1263.228758,563,1,[2.3036505000000034],[2.3036668000004283],Participant 1,1,N/A,2024-11-14_18h36.47.251,IntentionalBinding,2024.1.5,None,2024-11-14 18h37.22.005954 +0530
0.1,1000,exp,21,0,252,6,1263.243622,,1263.230508,1263.243622,1264.243405,1264.243405,1264.243405,1264.678744,space,0.4224206,None,1264.679531,1264.793532,1265.115193,1265.092934,1265.092978,1265.115193,1265.115193,1265.115193,1266.728743,53,1,[1.6329502999997203],[1.6329624999998487],Participant 1,1,N/A,2024-11-14_18h36.47.251,IntentionalBinding,2024.1.5,None,2024-11-14 18h37.22.005954 +0530
